## SPECTRUM TYPE:
Spectroscopic

## DATE:
11/9/2011

## COMMENTS:

## NUMBER OF SPECTRUM:
5

## ELLIPSOMETRIC CONFIGURATION:
-45.00 øModulator
-45.00 øAnalyser

## UNIT:
eV


# SPECTRUM:
1

# START TIME:
13:20:04

# END TIME:
13:32:13

# THETA ANGLE:
0.00 ø

# INCIDENCE ANGLE:
55.00 ø

# ACCUMULATION NUMBER:
1

# ELLIPSOMETRIC CONFIGURATION:
-45.00 øModulator
-45.00 øAnalyser

# INTEGRATION TIME:
500 ms

# FIRST POINT:
0.6000 eV

# LAST POINT:
6.5000 eV

# INCREMENT:
0.0250 eV

# NUMBER OF POINTS:
237

# DATA:
eV Hv S0 Psi Delta Is Ic 
0.600 3898.9 57.237 28.455 331.940 0.39411 -0.54595 
0.625 3702.1 78.879 28.642 331.429 0.40237 -0.54048 
0.650 3302.0 77.387 28.634 331.867 0.39664 -0.54071 
0.675 3302.0 80.989 28.928 332.773 0.38739 -0.53206 
0.700 2305.1 77.823 29.003 335.199 0.35575 -0.52982 
0.725 1905.0 77.356 29.038 337.702 0.32203 -0.52881 
0.750 1803.4 77.687 29.249 340.686 0.28200 -0.52253 
0.775 1606.6 80.971 29.433 344.034 0.23545 -0.51703 
0.800 1104.9 75.428 29.285 347.509 0.18455 -0.52146 
0.825 1301.8 60.338 29.445 351.285 0.12973 -0.51669 
0.850 1403.4 71.627 29.537 354.999 0.07478 -0.51393 
0.875 1003.3 67.565 29.590 358.913 0.01630 -0.51233 
0.900 1200.2 76.033 29.669 2.846 -0.04271 -0.50998 
0.925 1301.8 74.633 29.649 6.679 -0.10000 -0.51058 
0.950 1301.8 66.042 29.559 10.550 -0.15713 -0.51326 
0.975 1003.3 68.309 29.519 14.469 -0.21425 -0.51446 
1.000 1301.8 65.864 29.356 18.075 -0.26514 -0.51934 
1.025 1301.8 69.822 29.368 21.651 -0.31537 -0.51899 
1.050 901.7 68.906 29.280 25.114 -0.36211 -0.52160 
1.075 1301.8 65.752 29.102 28.143 -0.40089 -0.52690 
1.100 1301.8 68.847 28.878 31.366 -0.44023 -0.53353 
1.125 1301.8 66.053 28.710 34.633 -0.47889 -0.53848 
1.150 1301.8 71.594 28.448 38.550 -0.52204 -0.54616 
1.175 1403.4 70.530 28.281 45.125 -0.59135 -0.55104 
1.200 1803.4 62.030 28.413 57.854 -0.70870 -0.54717 
1.225 1606.6 79.353 29.887 72.970 -0.82616 -0.50341 
1.250 1104.9 70.690 33.104 75.262 -0.88491 -0.40342 
1.275 2406.7 62.633 37.517 57.852 -0.81796 -0.25824 
1.300 3206.8 60.983 42.910 29.021 -0.48385 -0.07288 
1.325 3905.3 55.192 45.371 357.606 0.04176 0.01296 
1.350 2603.5 79.470 42.586 318.398 0.66159 -0.08418 
1.375 2603.5 61.852 38.068 294.550 0.88310 -0.23960 
1.400 2101.9 78.960 33.014 275.460 0.90960 -0.40628 
1.425 3898.9 31.314 30.656 283.514 0.85295 -0.48005 
1.450 4000.5 18.155 28.723 293.319 0.77403 -0.53810 
1.475 780.0 46.661 27.198 305.561 0.66142 -0.58218 
1.500 608.0 68.116 26.405 309.513 0.61459 -0.60445 
1.525 709.0 70.952 25.987 317.180 0.53541 -0.61603 
1.550 632.0 66.463 25.944 323.313 0.47008 -0.61719 
1.575 667.0 65.096 25.970 329.597 0.39848 -0.61648 
1.600 667.0 76.171 25.963 335.423 0.32741 -0.61667 
1.625 595.0 74.609 26.009 340.640 0.26129 -0.61540 
1.650 595.0 60.926 26.064 346.284 0.18717 -0.61389 
1.675 595.0 75.790 26.071 351.494 0.11678 -0.61370 
1.700 574.0 69.818 26.126 356.803 0.04410 -0.61218 
1.725 563.0 69.398 26.017 1.990 -0.02738 -0.61520 
1.750 551.0 69.019 25.880 7.262 -0.09928 -0.61897 
1.775 551.0 77.867 25.750 12.352 -0.16740 -0.62253 
1.800 526.0 71.323 25.506 17.839 -0.23812 -0.62915 
1.825 526.0 74.260 25.199 23.192 -0.30343 -0.63745 
1.850 515.0 68.760 24.869 28.755 -0.36711 -0.64628 
1.875 515.0 70.751 24.470 34.444 -0.42647 -0.65685 
1.900 515.0 75.170 24.025 40.732 -0.48530 -0.66848 
1.925 515.0 76.299 23.584 46.988 -0.53623 -0.67986 
1.950 515.0 75.196 23.123 54.293 -0.58654 -0.69155 
1.975 515.0 72.701 22.655 62.621 -0.63128 -0.70328 
2.000 515.0 67.049 22.202 72.739 -0.66820 -0.71442 
2.025 528.0 68.654 21.882 83.347 -0.68704 -0.72219 
2.050 541.0 66.573 21.477 79.568 -0.67015 -0.73190 
2.075 541.0 64.212 20.982 58.932 -0.57275 -0.74356 
2.100 555.0 68.666 20.289 33.200 -0.35617 -0.75953 
2.125 555.0 67.670 19.358 3.413 -0.03724 -0.78025 
2.150 555.0 74.133 18.551 331.563 0.28726 -0.79755 
2.175 535.0 69.252 18.033 302.245 0.49792 -0.80834 
2.200 519.0 70.207 18.005 280.791 0.57753 -0.80891 
2.225 501.0 70.344 18.206 282.597 0.57930 -0.80477 
2.250 484.0 70.175 18.536 295.922 0.54216 -0.79789 
2.275 470.0 68.884 18.926 306.911 0.49063 -0.78960 
2.300 458.0 68.755 19.335 316.463 0.43040 -0.78076 
2.325 447.0 67.682 19.732 325.000 0.36456 -0.77203 
2.350 447.0 77.449 20.027 331.796 0.30413 -0.76544 
2.375 435.0 71.414 20.351 338.024 0.24404 -0.75811 
2.400 435.0 78.820 20.524 343.833 0.18285 -0.75415 
2.425 422.0 71.013 20.677 349.274 0.12296 -0.75064 
2.450 411.0 69.263 20.771 354.199 0.06703 -0.74847 
2.475 411.0 75.142 20.728 358.778 0.01412 -0.74948 
2.500 444.0 65.177 20.627 3.503 -0.04029 -0.75179 
2.525 444.0 69.934 20.415 7.887 -0.08972 -0.75665 
2.550 444.0 66.399 20.160 12.142 -0.13610 -0.76243 
2.575 444.0 71.436 19.797 16.235 -0.17818 -0.77059 
2.600 444.0 63.896 19.345 20.334 -0.21722 -0.78053 
2.625 444.0 74.226 18.763 24.418 -0.25180 -0.79308 
2.650 444.0 77.451 18.119 28.345 -0.28066 -0.80658 
2.675 444.0 63.489 17.405 32.096 -0.30331 -0.82106 
2.700 456.0 66.620 16.491 36.005 -0.32002 -0.83884 
2.725 467.0 69.146 15.348 39.990 -0.32806 -0.85989 
2.750 467.0 67.770 14.110 43.622 -0.32622 -0.88114 
2.775 480.0 67.782 12.872 46.368 -0.31438 -0.90074 
2.800 480.0 62.111 11.470 48.627 -0.29249 -0.92091 
2.825 491.0 69.127 9.895 49.345 -0.25686 -0.94094 
2.850 491.0 63.590 8.215 47.931 -0.20998 -0.95916 
2.875 491.0 60.121 6.775 42.463 -0.15817 -0.97217 
2.900 501.0 69.548 5.849 31.631 -0.10633 -0.97923 
2.925 501.0 69.978 5.575 17.088 -0.05683 -0.98112 
2.950 501.0 74.166 5.995 2.988 -0.01083 -0.97818 
2.975 501.0 75.598 6.825 354.325 0.02334 -0.97175 
3.000 492.0 68.942 8.072 350.124 0.04769 -0.96057 
3.025 492.0 72.198 9.143 348.745 0.06124 -0.94950 
3.050 492.0 75.602 10.178 349.053 0.06605 -0.93755 
3.075 492.0 79.417 11.114 350.345 0.06345 -0.92569 
3.100 455.0 60.487 11.970 352.344 0.05406 -0.91398 
3.125 455.0 64.732 12.712 354.516 0.04102 -0.90316 
3.150 455.0 66.273 13.280 356.882 0.02432 -0.89447 
3.175 455.0 66.772 13.828 359.374 0.00507 -0.88576 
3.200 455.0 66.981 14.196 1.817 -0.01508 -0.87972 
3.225 455.0 67.670 14.490 4.145 -0.03502 -0.87479 
3.250 455.0 67.515 14.698 6.548 -0.05597 -0.87124 
3.275 455.0 66.465 14.833 9.077 -0.07808 -0.86893 
3.300 455.0 64.426 14.882 11.434 -0.09841 -0.86808 
3.325 455.0 60.115 14.822 13.889 -0.11873 -0.86912 
3.350 466.0 68.812 14.699 16.202 -0.13697 -0.87122 
3.375 466.0 68.495 14.500 18.148 -0.15101 -0.87462 
3.400 466.0 69.193 14.273 19.734 -0.16135 -0.87844 
3.425 466.0 68.660 13.950 21.240 -0.16952 -0.88377 
3.450 466.0 66.635 13.667 22.187 -0.17340 -0.88834 
3.475 466.0 64.650 13.331 23.043 -0.17564 -0.89367 
3.500 466.0 62.685 13.050 23.602 -0.17614 -0.89803 
3.525 466.0 60.493 12.723 23.865 -0.17383 -0.90299 
3.550 466.0 57.811 12.497 23.883 -0.17107 -0.90635 
3.575 478.0 68.199 12.242 23.760 -0.16698 -0.91008 
3.600 478.0 66.881 12.005 23.435 -0.16183 -0.91347 
3.625 478.0 65.632 11.847 22.854 -0.15608 -0.91570 
3.650 478.0 64.430 11.631 22.386 -0.15040 -0.91871 
3.675 478.0 64.458 11.597 21.542 -0.14462 -0.91917 
3.700 478.0 63.689 11.500 20.960 -0.13977 -0.92051 
3.725 478.0 64.079 11.513 20.172 -0.13488 -0.92033 
3.750 478.0 63.752 11.476 19.646 -0.13110 -0.92084 
3.775 478.0 62.634 11.588 19.082 -0.12866 -0.91931 
3.800 478.0 60.954 11.657 18.592 -0.12618 -0.91835 
3.825 488.0 68.820 11.687 18.431 -0.12543 -0.91794 
3.850 488.0 66.541 11.810 18.051 -0.12415 -0.91622 
3.875 488.0 61.754 11.898 18.004 -0.12470 -0.91499 
3.900 499.0 68.350 12.019 17.944 -0.12550 -0.91328 
3.925 499.0 64.323 12.128 18.082 -0.12751 -0.91172 
3.950 499.0 60.772 12.202 18.225 -0.12922 -0.91066 
3.975 510.0 68.203 12.308 18.513 -0.13225 -0.90913 
4.000 510.0 64.429 12.384 18.614 -0.13372 -0.90801 
4.025 510.0 60.436 12.489 19.017 -0.13759 -0.90647 
4.050 521.0 68.329 12.557 19.484 -0.14156 -0.90547 
4.075 521.0 64.954 12.492 19.871 -0.14356 -0.90643 
4.100 521.0 61.090 12.585 20.154 -0.14653 -0.90505 
4.125 532.0 67.703 12.559 20.631 -0.14957 -0.90543 
4.150 532.0 64.455 12.573 21.069 -0.15276 -0.90522 
4.175 532.0 61.687 12.634 21.456 -0.15614 -0.90432 
4.200 532.0 59.295 12.752 21.563 -0.15825 -0.90255 
4.225 545.0 68.235 12.660 22.201 -0.16160 -0.90393 
4.250 545.0 66.169 12.707 22.461 -0.16396 -0.90323 
4.275 545.0 63.236 12.656 22.926 -0.16655 -0.90400 
4.300 607.0 67.020 12.575 23.374 -0.16861 -0.90519 
4.325 607.0 70.587 12.611 23.542 -0.17021 -0.90466 
4.350 607.0 74.020 12.624 23.737 -0.17170 -0.90448 
4.375 607.0 76.875 12.563 24.072 -0.17320 -0.90537 
4.400 607.0 79.597 12.592 24.067 -0.17354 -0.90494 
4.425 596.0 71.180 12.574 24.166 -0.17398 -0.90521 
4.450 596.0 72.328 12.453 24.584 -0.17520 -0.90700 
4.475 596.0 73.241 12.463 24.666 -0.17589 -0.90685 
4.500 596.0 74.818 12.466 24.450 -0.17448 -0.90681 
4.525 596.0 74.254 12.387 24.800 -0.17577 -0.90797 
4.550 596.0 75.885 12.429 24.806 -0.17636 -0.90736 
4.575 596.0 75.076 12.414 24.870 -0.17659 -0.90758 
4.600 596.0 75.144 12.423 24.821 -0.17639 -0.90744 
4.625 596.0 74.115 12.346 25.078 -0.17706 -0.90856 
4.650 596.0 72.415 12.369 24.991 -0.17680 -0.90823 
4.675 596.0 71.714 12.364 25.073 -0.17727 -0.90831 
4.700 596.0 69.880 12.459 24.883 -0.17728 -0.90691 
4.725 596.0 68.136 12.408 25.003 -0.17740 -0.90766 
4.750 596.0 67.608 12.473 25.145 -0.17922 -0.90670 
4.775 596.0 66.128 12.491 25.089 -0.17908 -0.90645 
4.800 596.0 64.167 12.402 25.360 -0.17969 -0.90774 
4.825 596.0 61.435 12.373 25.545 -0.18050 -0.90817 
4.850 596.0 60.548 12.453 25.550 -0.18163 -0.90701 
4.875 608.0 68.710 12.479 25.792 -0.18359 -0.90662 
4.900 608.0 67.173 12.478 25.898 -0.18429 -0.90663 
4.925 608.0 65.794 12.486 25.897 -0.18439 -0.90651 
4.950 608.0 64.609 12.442 25.948 -0.18412 -0.90716 
4.975 608.0 64.028 12.485 26.098 -0.18570 -0.90654 
5.000 608.0 62.772 12.567 26.170 -0.18733 -0.90532 
5.025 608.0 61.893 12.541 26.397 -0.18847 -0.90570 
5.050 608.0 59.923 12.580 26.386 -0.18894 -0.90512 
5.075 620.0 67.842 12.509 26.602 -0.18937 -0.90618 
5.100 620.0 66.654 12.632 26.409 -0.18982 -0.90435 
5.125 620.0 65.332 12.644 26.640 -0.19153 -0.90418 
5.150 620.0 63.409 12.538 27.033 -0.19263 -0.90574 
5.175 620.0 61.796 12.587 27.266 -0.19488 -0.90501 
5.200 620.0 60.285 12.526 27.362 -0.19462 -0.90592 
5.225 635.0 69.413 12.590 27.420 -0.19593 -0.90498 
5.250 635.0 67.782 12.526 27.783 -0.19737 -0.90593 
5.275 635.0 66.754 12.652 27.352 -0.19638 -0.90406 
5.300 635.0 64.048 12.616 27.960 -0.19987 -0.90459 
5.325 635.0 62.920 12.754 27.471 -0.19865 -0.90253 
5.350 635.0 61.280 12.621 28.134 -0.20109 -0.90451 
5.375 635.0 59.698 12.664 28.090 -0.20143 -0.90387 
5.400 650.0 70.823 12.569 27.881 -0.19866 -0.90529 
5.425 650.0 68.951 12.672 28.040 -0.20122 -0.90376 
5.450 650.0 67.625 12.589 28.543 -0.20329 -0.90498 
5.475 650.0 65.799 12.710 28.310 -0.20357 -0.90318 
5.500 650.0 64.586 12.590 28.855 -0.20532 -0.90498 
5.525 650.0 63.142 12.778 28.506 -0.20589 -0.90216 
5.550 650.0 60.745 12.610 28.888 -0.20584 -0.90468 
5.575 650.0 59.148 12.607 29.085 -0.20709 -0.90472 
5.600 664.0 66.885 12.591 29.200 -0.20759 -0.90495 
5.625 664.0 64.463 12.603 29.332 -0.20863 -0.90478 
5.650 664.0 62.484 12.640 29.554 -0.21064 -0.90423 
5.675 677.0 69.579 12.820 29.102 -0.21046 -0.90153 
5.700 677.0 67.216 12.841 29.577 -0.21391 -0.90121 
5.725 677.0 63.865 12.810 29.498 -0.21291 -0.90168 
5.750 677.0 61.285 12.713 29.804 -0.21340 -0.90314 
5.775 695.0 69.965 12.716 29.946 -0.21437 -0.90309 
5.800 695.0 66.832 12.688 30.113 -0.21500 -0.90352 
5.825 695.0 63.060 12.787 30.011 -0.21591 -0.90203 
5.850 709.0 69.124 12.877 29.842 -0.21622 -0.90067 
5.875 709.0 65.449 12.891 29.962 -0.21723 -0.90045 
5.900 709.0 60.988 12.820 30.374 -0.21881 -0.90152 
5.925 725.0 67.147 12.901 30.755 -0.22258 -0.90030 
5.950 725.0 62.344 12.818 30.985 -0.22274 -0.90156 
5.975 725.0 57.828 12.754 31.207 -0.22312 -0.90253 
6.000 745.0 65.979 12.906 30.502 -0.22100 -0.90023 
6.025 759.0 70.128 12.624 31.220 -0.22109 -0.90446 
6.050 759.0 65.200 12.868 30.944 -0.22328 -0.90080 
6.075 759.0 60.810 12.694 32.146 -0.22813 -0.90342 
6.100 780.0 0.000 45.000 0.000 0.00000 0.00000 
6.125 780.0 65.317 13.206 30.279 -0.22429 -0.89561 
6.150 780.0 60.928 12.742 30.758 -0.22004 -0.90271 
6.175 780.0 55.866 13.423 29.076 -0.21947 -0.89222 
6.200 780.0 53.211 12.969 31.665 -0.22961 -0.89927 
6.225 780.0 49.403 12.675 32.198 -0.22813 -0.90371 
6.250 780.0 46.641 12.794 33.055 -0.23558 -0.90192 
6.275 780.0 43.793 12.691 32.135 -0.22800 -0.90347 
6.300 780.0 40.997 13.162 31.728 -0.23320 -0.89630 
6.325 780.0 37.762 12.850 32.335 -0.23195 -0.90108 
6.350 780.0 34.741 12.483 32.784 -0.22854 -0.90656 
6.375 780.0 31.618 12.830 33.769 -0.24070 -0.90138 
6.400 780.0 29.095 12.635 33.655 -0.23658 -0.90430 
6.425 780.0 26.176 13.639 28.744 -0.22039 -0.88880 
6.450 780.0 23.049 12.744 31.949 -0.22771 -0.90268 
6.475 780.0 20.504 13.276 30.158 -0.22457 -0.89453 
6.500 780.0 17.916 13.159 29.685 -0.21956 -0.89635 

# MINIMA:
0.600 411.0 0.000 5.575 0.000 -0.88491 -0.98112 

# MAXIMA:
6.500 4000.5 80.989 45.371 359.374 0.90960 0.01296 

# PEAKS:

# END SPECTRUM


# SPECTRUM:
2

# START TIME:
13:33:04

# END TIME:
13:43:49

# THETA ANGLE:
0.00 ø

# INCIDENCE ANGLE:
60.00 ø

# ACCUMULATION NUMBER:
1

# ELLIPSOMETRIC CONFIGURATION:
-45.00 øModulator
-45.00 øAnalyser

# INTEGRATION TIME:
500 ms

# FIRST POINT:
0.6000 eV

# LAST POINT:
6.5000 eV

# INCREMENT:
0.0250 eV

# NUMBER OF POINTS:
237

# DATA:
eV Hv S0 Psi Delta Is Ic 
0.600 3898.9 48.637 25.285 324.557 0.44791 -0.63513 
0.625 3898.9 71.637 25.390 322.712 0.46936 -0.63229 
0.650 3898.9 77.201 25.186 322.084 0.47330 -0.63779 
0.675 3797.3 79.175 25.258 322.680 0.46792 -0.63587 
0.700 2800.4 78.921 25.004 325.017 0.43925 -0.64267 
0.725 2298.7 77.573 24.948 328.028 0.40500 -0.64418 
0.750 2197.1 78.244 24.943 331.649 0.36317 -0.64430 
0.775 1797.1 79.143 24.968 335.857 0.31302 -0.64366 
0.800 1200.2 78.206 24.927 340.455 0.25573 -0.64475 
0.825 1498.6 68.979 24.890 345.413 0.19231 -0.64571 
0.850 1498.6 67.503 24.941 350.434 0.12709 -0.64435 
0.875 1098.6 73.041 24.936 355.697 0.05736 -0.64451 
0.900 1200.2 63.824 24.929 0.994 -0.01327 -0.64469 
0.925 1301.8 63.233 25.001 6.302 -0.08409 -0.64275 
0.950 1403.4 69.411 25.012 11.601 -0.15410 -0.64248 
0.975 1104.9 78.006 25.073 16.874 -0.22284 -0.64083 
1.000 1403.4 72.836 25.099 21.829 -0.28567 -0.64013 
1.025 1403.4 78.100 25.072 26.697 -0.34489 -0.64086 
1.050 901.7 67.000 25.122 31.323 -0.39966 -0.63953 
1.075 1301.8 63.134 25.206 35.517 -0.44770 -0.63726 
1.100 1301.8 68.004 25.209 39.783 -0.49317 -0.63719 
1.125 1301.8 66.524 25.255 44.095 -0.53702 -0.63594 
1.150 1301.8 74.713 25.472 48.902 -0.58518 -0.63008 
1.175 1301.8 65.135 25.866 56.101 -0.65167 -0.61935 
1.200 1600.2 62.846 26.791 67.488 -0.74339 -0.59367 
1.225 1403.4 80.671 28.842 75.471 -0.81808 -0.53460 
1.250 901.7 64.109 31.967 69.356 -0.84061 -0.43941 
1.275 1600.2 61.232 35.936 56.593 -0.79335 -0.31114 
1.300 1797.1 61.824 40.641 38.376 -0.61365 -0.15157 
1.325 2597.2 61.939 44.166 16.221 -0.27923 -0.02911 
1.350 1695.5 80.952 45.134 346.363 0.23578 0.00469 
1.375 2197.1 65.177 42.251 323.212 0.59611 -0.09580 
1.400 1898.7 79.207 37.021 300.855 0.82539 -0.27492 
1.425 4000.5 34.067 33.385 289.639 0.86547 -0.39443 
1.450 4000.5 18.541 29.896 280.235 0.85046 -0.50313 
1.475 780.0 52.149 26.593 287.328 0.76426 -0.59921 
1.500 606.0 70.952 25.181 286.053 0.74007 -0.63793 
1.525 693.0 63.566 23.926 295.802 0.66750 -0.67104 
1.550 637.0 73.158 23.025 303.030 0.60358 -0.69404 
1.575 665.0 65.551 22.421 311.056 0.53174 -0.70904 
1.600 665.0 74.851 22.085 318.994 0.45720 -0.71726 
1.625 584.0 64.840 21.660 326.321 0.38045 -0.72753 
1.650 604.0 67.759 21.477 334.306 0.29543 -0.73191 
1.675 590.0 71.186 21.362 341.673 0.21334 -0.73463 
1.700 575.0 71.007 21.172 349.191 0.12632 -0.73912 
1.725 563.0 69.864 21.094 356.575 0.04012 -0.74095 
1.750 551.0 70.631 21.018 4.008 -0.04680 -0.74273 
1.775 541.0 70.315 20.919 11.299 -0.13069 -0.74503 
1.800 523.0 70.663 20.853 18.822 -0.21465 -0.74657 
1.825 523.0 76.429 20.719 26.224 -0.29244 -0.74967 
1.850 511.0 70.725 20.655 33.798 -0.36721 -0.75115 
1.875 511.0 75.533 20.551 41.363 -0.43443 -0.75355 
1.900 500.0 70.491 20.488 49.364 -0.49761 -0.75499 
1.925 500.0 74.225 20.543 57.095 -0.55176 -0.75373 
1.950 500.0 76.834 20.630 65.266 -0.59897 -0.75174 
1.975 491.0 68.403 20.727 74.323 -0.63738 -0.74949 
2.000 491.0 67.111 21.049 83.708 -0.66636 -0.74200 
2.025 491.0 62.113 21.513 85.341 -0.68007 -0.73105 
2.050 505.0 67.097 22.138 73.874 -0.67065 -0.71598 
2.075 505.0 68.484 22.905 58.923 -0.61411 -0.69705 
2.100 505.0 62.907 23.618 42.176 -0.49292 -0.67898 
2.125 516.0 70.186 23.974 23.520 -0.29632 -0.66982 
2.150 516.0 69.513 23.638 2.551 -0.03270 -0.67847 
2.175 516.0 75.024 22.407 341.115 0.22813 -0.70939 
2.200 503.0 70.822 20.768 321.252 0.41502 -0.74854 
2.225 491.0 71.229 19.084 302.913 0.51878 -0.78620 
2.250 476.0 67.859 17.622 286.279 0.55393 -0.81669 
2.275 466.0 69.901 16.496 270.000 0.54592 -0.83875 
2.300 456.0 70.980 15.710 282.080 0.50978 -0.85336 
2.325 445.0 69.918 15.173 294.536 0.45960 -0.86299 
2.350 445.0 79.777 14.795 305.556 0.40171 -0.86959 
2.375 430.0 69.959 14.602 315.509 0.34194 -0.87288 
2.400 430.0 77.964 14.436 325.007 0.27691 -0.87570 
2.425 417.0 69.789 14.449 334.198 0.21033 -0.87549 
2.450 407.0 70.279 14.391 342.213 0.14709 -0.87645 
2.475 407.0 77.367 14.398 349.874 0.08469 -0.87635 
2.500 448.0 65.694 14.350 357.481 0.02111 -0.87715 
2.525 448.0 70.996 14.249 4.516 -0.03757 -0.87883 
2.550 448.0 68.700 14.126 11.426 -0.09377 -0.88088 
2.575 448.0 76.047 13.988 17.891 -0.14411 -0.88314 
2.600 448.0 69.128 13.746 24.548 -0.19179 -0.88707 
2.625 438.0 70.507 13.493 31.161 -0.23480 -0.89112 
2.650 438.0 75.625 13.159 37.551 -0.27021 -0.89634 
2.675 438.0 64.419 12.845 43.668 -0.29933 -0.90115 
2.700 447.0 66.772 12.365 50.295 -0.32186 -0.90829 
2.725 447.0 60.174 11.825 56.933 -0.33618 -0.91601 
2.750 447.0 61.347 11.202 63.896 -0.34227 -0.92451 
2.775 463.0 67.664 10.506 70.859 -0.33875 -0.93350 
2.800 463.0 63.130 9.713 78.367 -0.32574 -0.94308 
2.825 463.0 60.609 8.782 87.569 -0.30149 -0.95338 
2.850 476.0 69.116 7.703 90.000 -0.26687 -0.96406 
2.875 476.0 65.452 6.567 82.811 -0.22544 -0.97384 
2.900 476.0 63.698 5.484 70.478 -0.17933 -0.98173 
2.925 476.0 62.940 4.269 63.166 -0.13246 -0.98892 
2.950 476.0 64.495 3.007 52.659 -0.08330 -0.99450 
2.975 476.0 63.278 1.726 42.081 -0.04036 -0.99818 
3.000 476.0 64.691 0.854 7.187 -0.00373 -0.99956 
3.025 476.0 66.039 0.000 180.000 0.02216 -1.00000 
3.050 476.0 67.174 1.724 319.801 0.03883 -0.99819 
3.075 476.0 68.914 2.624 328.848 0.04732 -0.99581 
3.100 458.0 70.531 3.482 336.264 0.04880 -0.99262 
3.125 458.0 73.723 4.343 343.205 0.04364 -0.98853 
3.150 458.0 74.607 5.090 349.102 0.03341 -0.98426 
3.175 458.0 75.482 5.837 354.696 0.01870 -0.97932 
3.200 458.0 75.382 6.349 359.688 0.00120 -0.97554 
3.225 458.0 76.438 6.833 4.235 -0.01745 -0.97169 
3.250 458.0 76.939 7.182 8.791 -0.03792 -0.96873 
3.275 458.0 76.485 7.583 13.524 -0.06118 -0.96517 
3.300 458.0 74.711 7.791 18.198 -0.08388 -0.96325 
3.325 458.0 70.834 8.038 22.607 -0.10646 -0.96089 
3.350 458.0 67.537 8.098 27.142 -0.12725 -0.96031 
3.375 458.0 68.504 8.174 31.003 -0.14498 -0.95957 
3.400 458.0 70.336 8.096 34.864 -0.15940 -0.96033 
3.425 458.0 70.407 7.984 38.242 -0.17028 -0.96142 
3.450 458.0 69.408 7.838 41.279 -0.17827 -0.96280 
3.475 458.0 68.581 7.696 43.822 -0.18378 -0.96413 
3.500 458.0 66.159 7.511 46.148 -0.18690 -0.96583 
3.525 458.0 63.849 7.321 47.801 -0.18727 -0.96752 
3.550 458.0 62.126 7.160 49.040 -0.18679 -0.96893 
3.575 458.0 60.602 6.935 50.612 -0.18528 -0.97084 
3.600 458.0 59.611 6.835 50.303 -0.18183 -0.97167 
3.625 467.0 67.292 6.464 52.880 -0.17840 -0.97465 
3.650 467.0 67.128 6.258 53.292 -0.17375 -0.97623 
3.675 467.0 66.367 6.049 53.901 -0.16935 -0.97779 
3.700 467.0 65.827 5.881 53.653 -0.16419 -0.97900 
3.725 467.0 66.177 5.761 52.981 -0.15949 -0.97985 
3.750 467.0 64.792 5.743 51.356 -0.15553 -0.97997 
3.775 467.0 64.719 5.628 51.052 -0.15180 -0.98077 
3.800 467.0 62.494 5.681 48.911 -0.14848 -0.98040 
3.825 467.0 60.251 5.520 49.746 -0.14614 -0.98150 
3.850 479.0 69.721 5.550 49.290 -0.14595 -0.98129 
3.875 479.0 65.184 5.659 47.232 -0.14407 -0.98055 
3.900 479.0 60.995 5.717 46.436 -0.14366 -0.98015 
3.925 491.0 68.058 5.730 46.977 -0.14526 -0.98006 
3.950 491.0 64.196 5.981 44.589 -0.14550 -0.97829 
3.975 491.0 60.913 6.094 44.389 -0.14769 -0.97746 
4.000 503.0 69.325 6.090 45.399 -0.15022 -0.97749 
4.025 503.0 65.601 6.085 46.375 -0.15261 -0.97752 
4.050 503.0 62.632 6.241 45.921 -0.15527 -0.97636 
4.075 503.0 59.311 6.336 45.709 -0.15702 -0.97564 
4.100 516.0 67.609 6.219 48.026 -0.16014 -0.97653 
4.125 516.0 63.834 6.456 46.980 -0.16337 -0.97471 
4.150 516.0 60.672 6.430 48.629 -0.16703 -0.97492 
4.175 528.0 69.036 6.754 46.887 -0.17052 -0.97234 
4.200 528.0 66.331 6.721 48.059 -0.17291 -0.97261 
4.225 528.0 64.723 6.840 47.702 -0.17493 -0.97163 
4.250 528.0 63.002 6.775 49.496 -0.17814 -0.97217 
4.275 528.0 60.376 6.890 49.567 -0.18130 -0.97122 
4.300 611.0 75.806 6.838 50.931 -0.18357 -0.97165 
4.325 599.0 69.604 6.938 50.393 -0.18477 -0.97081 
4.350 599.0 72.662 6.989 51.542 -0.18915 -0.97039 
4.375 599.0 76.888 6.917 53.153 -0.19134 -0.97099 
4.400 588.0 69.447 6.972 52.459 -0.19108 -0.97053 
4.425 588.0 71.587 6.941 52.889 -0.19134 -0.97079 
4.450 588.0 72.925 6.984 52.751 -0.19214 -0.97043 
4.475 588.0 74.504 6.949 53.655 -0.19346 -0.97073 
4.500 588.0 75.645 6.915 54.611 -0.19488 -0.97101 
4.525 588.0 76.744 6.948 54.244 -0.19489 -0.97073 
4.550 588.0 77.160 6.917 54.283 -0.19413 -0.97099 
4.575 588.0 76.436 6.883 55.291 -0.19562 -0.97128 
4.600 588.0 76.051 6.847 55.752 -0.19569 -0.97157 
4.625 588.0 75.563 6.942 54.881 -0.19628 -0.97078 
4.650 588.0 74.558 6.975 54.503 -0.19627 -0.97051 
4.675 588.0 73.419 6.832 56.227 -0.19635 -0.97170 
4.700 588.0 72.666 6.896 55.938 -0.19750 -0.97117 
4.725 588.0 70.576 6.932 55.447 -0.19734 -0.97087 
4.750 588.0 69.183 6.862 56.440 -0.19770 -0.97145 
4.775 588.0 67.747 6.877 56.071 -0.19727 -0.97133 
4.800 588.0 66.590 7.010 55.048 -0.19856 -0.97021 
4.825 588.0 65.238 6.935 56.281 -0.19940 -0.97084 
4.850 588.0 63.662 7.065 54.599 -0.19900 -0.96974 
4.875 588.0 62.456 7.140 54.922 -0.20185 -0.96911 
4.900 588.0 60.672 7.144 54.931 -0.20198 -0.96907 
4.925 600.0 69.537 7.062 56.632 -0.20380 -0.96977 
4.950 600.0 68.440 7.135 55.898 -0.20410 -0.96915 
4.975 600.0 67.543 7.136 56.395 -0.20532 -0.96914 
5.000 600.0 66.592 7.066 57.803 -0.20660 -0.96974 
5.025 600.0 64.754 7.100 57.551 -0.20701 -0.96944 
5.050 600.0 64.244 7.155 57.738 -0.20901 -0.96897 
5.075 600.0 63.267 7.178 57.735 -0.20967 -0.96877 
5.100 600.0 61.225 7.272 56.672 -0.20981 -0.96796 
5.125 600.0 59.815 7.359 56.867 -0.21275 -0.96719 
5.150 613.0 68.465 7.173 59.127 -0.21266 -0.96882 
5.175 613.0 66.579 7.407 56.871 -0.21411 -0.96676 
5.200 613.0 64.700 7.257 58.841 -0.21447 -0.96808 
5.225 613.0 63.377 7.363 57.886 -0.21531 -0.96715 
5.250 613.0 61.433 7.194 61.006 -0.21736 -0.96863 
5.275 613.0 60.481 7.303 59.664 -0.21765 -0.96768 
5.300 626.0 68.143 7.299 60.336 -0.21900 -0.96772 
5.325 626.0 67.073 7.425 59.084 -0.21989 -0.96660 
5.350 626.0 65.625 7.300 61.175 -0.22084 -0.96771 
5.375 626.0 64.618 7.395 59.952 -0.22098 -0.96686 
5.400 626.0 63.459 7.500 59.329 -0.22261 -0.96593 
5.425 626.0 61.647 7.568 58.710 -0.22314 -0.96530 
5.450 626.0 60.972 7.497 59.428 -0.22276 -0.96595 
5.475 626.0 59.474 7.457 60.810 -0.22469 -0.96631 
5.500 626.0 57.789 7.605 59.818 -0.22680 -0.96497 
5.525 640.0 66.492 7.612 59.097 -0.22531 -0.96491 
5.550 640.0 64.760 7.492 61.013 -0.22616 -0.96600 
5.575 640.0 62.790 7.688 59.100 -0.22750 -0.96421 
5.600 640.0 60.938 7.642 60.043 -0.22839 -0.96463 
5.625 640.0 59.090 7.827 59.016 -0.23134 -0.96290 
5.650 654.0 66.927 7.679 61.401 -0.23253 -0.96429 
5.675 654.0 64.133 7.507 63.369 -0.23157 -0.96586 
5.700 654.0 61.745 7.616 62.901 -0.23390 -0.96487 
5.725 654.0 58.867 7.884 59.454 -0.23403 -0.96237 
5.750 671.0 68.820 7.738 62.554 -0.23679 -0.96375 
5.775 671.0 65.466 7.942 59.766 -0.23646 -0.96182 
5.800 671.0 62.117 7.796 61.357 -0.23589 -0.96320 
5.825 687.0 68.786 7.696 63.757 -0.23807 -0.96413 
5.850 687.0 65.633 7.845 62.508 -0.23988 -0.96274 
5.875 687.0 61.576 7.898 62.534 -0.24154 -0.96223 
5.900 687.0 57.384 7.878 64.785 -0.24568 -0.96242 
5.925 703.0 64.015 7.747 64.884 -0.24189 -0.96366 
5.950 719.0 70.288 7.988 61.819 -0.24260 -0.96138 
5.975 719.0 65.194 8.020 62.450 -0.24498 -0.96107 
6.000 719.0 60.874 8.000 63.102 -0.24582 -0.96126 
6.025 738.0 68.294 8.048 61.874 -0.24450 -0.96080 
6.050 738.0 63.996 8.311 57.691 -0.24178 -0.95821 
6.075 738.0 59.729 8.300 58.943 -0.24474 -0.95832 
6.100 763.0 70.406 8.523 57.137 -0.24622 -0.95607 
6.125 763.0 65.647 7.963 65.667 -0.25002 -0.96162 
6.150 763.0 61.913 8.017 65.012 -0.25035 -0.96110 
6.175 780.0 69.125 8.550 59.497 -0.25334 -0.95580 
6.200 780.0 63.427 8.041 64.327 -0.24966 -0.96087 
6.225 780.0 59.878 8.337 63.614 -0.25703 -0.95795 
6.250 780.0 56.162 8.554 59.802 -0.25426 -0.95575 
6.275 780.0 52.595 8.160 61.470 -0.24687 -0.95971 
6.300 780.0 49.355 8.745 57.860 -0.25448 -0.95377 
6.325 780.0 45.873 8.515 58.868 -0.25070 -0.95615 
6.350 780.0 42.351 8.257 62.015 -0.25102 -0.95875 
6.375 780.0 38.302 8.370 58.688 -0.24608 -0.95762 
6.400 780.0 34.788 7.933 68.489 -0.25435 -0.96190 
6.425 780.0 31.354 8.632 58.157 -0.25211 -0.95495 
6.450 780.0 27.849 8.295 64.730 -0.25820 -0.95837 
6.475 780.0 24.445 8.787 58.527 -0.25750 -0.95333 
6.500 780.0 21.392 7.220 90.000 -0.27084 -0.96841 

# MINIMA:
0.600 407.0 18.541 0.000 0.994 -0.84061 -1.00000 

# MAXIMA:
6.500 4000.5 80.952 45.134 359.688 0.86547 0.00469 

# PEAKS:

# END SPECTRUM


# SPECTRUM:
3

# START TIME:
13:44:40

# END TIME:
13:55:25

# THETA ANGLE:
0.00 ø

# INCIDENCE ANGLE:
65.00 ø

# ACCUMULATION NUMBER:
1

# ELLIPSOMETRIC CONFIGURATION:
-45.00 øModulator
-45.00 øAnalyser

# INTEGRATION TIME:
500 ms

# FIRST POINT:
0.6000 eV

# LAST POINT:
6.5000 eV

# INCREMENT:
0.0250 eV

# NUMBER OF POINTS:
237

# DATA:
eV Hv S0 Psi Delta Is Ic 
0.600 3898.9 43.888 23.292 319.347 0.47322 -0.68730 
0.625 3898.9 63.592 22.960 315.426 0.50418 -0.69565 
0.650 3898.9 67.654 22.258 312.884 0.51373 -0.71305 
0.675 3898.9 69.153 21.635 312.119 0.50843 -0.72813 
0.700 3302.0 78.401 21.289 311.756 0.50472 -0.73636 
0.725 2800.4 79.976 20.751 313.801 0.47828 -0.74892 
0.750 2603.5 77.035 20.252 317.346 0.44008 -0.76036 
0.775 2101.9 79.047 19.828 322.279 0.39045 -0.76988 
0.800 1301.8 78.764 19.392 328.046 0.33151 -0.77951 
0.825 1600.2 65.302 19.146 334.755 0.26428 -0.78486 
0.850 1600.2 63.379 18.872 341.956 0.18960 -0.79075 
0.875 1200.2 76.291 18.767 349.603 0.10995 -0.79299 
0.900 1301.8 63.066 18.698 357.482 0.02668 -0.79446 
0.925 1403.4 62.315 18.730 5.433 -0.05758 -0.79378 
0.950 1505.0 66.846 18.873 13.270 -0.14051 -0.79074 
0.975 1104.9 64.040 19.138 21.071 -0.22270 -0.78504 
1.000 1505.0 71.457 19.457 28.069 -0.29556 -0.77810 
1.025 1505.0 78.496 19.773 34.819 -0.36355 -0.77111 
1.050 1003.3 77.888 20.256 41.012 -0.42628 -0.76027 
1.075 1403.4 68.717 20.798 46.208 -0.47922 -0.74785 
1.100 1403.4 75.164 21.195 51.433 -0.52712 -0.73858 
1.125 1403.4 77.181 21.907 55.815 -0.57270 -0.72160 
1.150 1301.8 72.693 22.826 59.952 -0.61900 -0.69902 
1.175 1301.8 68.780 24.101 65.000 -0.67565 -0.66651 
1.200 1498.6 64.277 26.042 69.504 -0.73897 -0.61450 
1.225 1200.2 70.831 28.698 67.430 -0.77790 -0.53882 
1.250 800.1 65.186 31.756 60.296 -0.77742 -0.44601 
1.275 1397.0 65.307 35.225 50.962 -0.73195 -0.33462 
1.300 1397.0 60.544 39.213 38.552 -0.61055 -0.20063 
1.325 1797.1 65.691 42.749 23.930 -0.40437 -0.07851 
1.350 1295.4 73.850 45.085 3.028 -0.05283 0.00297 
1.375 1797.1 69.503 44.428 344.411 0.26869 -0.01998 
1.400 1600.2 78.761 41.157 324.149 0.58041 -0.13374 
1.425 3898.9 39.166 37.533 311.865 0.71956 -0.25771 
1.450 4000.5 20.546 33.243 300.241 0.79217 -0.39897 
1.475 780.0 65.738 29.235 294.216 0.77737 -0.52293 
1.500 585.0 65.271 26.629 281.529 0.78518 -0.59820 
1.525 696.0 74.820 24.203 278.194 0.74023 -0.66385 
1.550 629.0 74.973 22.378 277.607 0.69790 -0.71010 
1.575 659.0 64.877 20.659 285.453 0.63637 -0.75106 
1.600 659.0 72.272 19.204 293.625 0.56918 -0.78361 
1.625 593.0 73.193 18.101 302.279 0.49936 -0.80694 
1.650 606.0 68.273 17.098 312.855 0.41201 -0.82712 
1.675 591.0 69.782 16.243 322.973 0.32344 -0.84352 
1.700 578.0 71.346 15.575 334.019 0.22660 -0.85582 
1.725 567.0 70.948 15.133 345.324 0.12770 -0.86369 
1.750 552.0 68.425 14.916 356.999 0.02604 -0.86749 
1.775 552.0 78.771 14.783 8.462 -0.07261 -0.86978 
1.800 525.0 71.480 14.885 20.571 -0.17446 -0.86803 
1.825 525.0 77.646 15.218 31.820 -0.26710 -0.86219 
1.850 508.0 69.078 15.655 42.666 -0.35219 -0.85437 
1.875 508.0 75.082 16.182 52.764 -0.42617 -0.84467 
1.900 494.0 68.716 16.807 63.273 -0.49446 -0.83278 
1.925 494.0 75.010 17.592 72.520 -0.54958 -0.81732 
1.950 494.0 81.468 18.393 83.185 -0.59461 -0.80087 
1.975 479.0 69.241 19.403 90.000 -0.62800 -0.77927 
2.000 479.0 70.354 20.471 81.154 -0.64750 -0.75538 
2.025 479.0 70.074 21.702 72.372 -0.65488 -0.72652 
2.050 479.0 63.739 23.043 62.958 -0.64162 -0.69358 
2.075 479.0 69.763 24.515 52.542 -0.59935 -0.65567 
2.100 479.0 68.328 25.958 41.312 -0.51961 -0.61682 
2.125 479.0 65.467 27.148 29.206 -0.39625 -0.58359 
2.150 479.0 63.684 27.780 15.384 -0.21879 -0.56555 
2.175 479.0 65.005 27.469 0.724 -0.01034 -0.57445 
2.200 479.0 67.564 26.288 346.571 0.18444 -0.60771 
2.225 479.0 76.743 24.339 332.896 0.34216 -0.66030 
2.250 466.0 69.955 22.089 320.652 0.44186 -0.71717 
2.275 457.0 68.747 19.796 309.500 0.49176 -0.77061 
2.300 449.0 69.860 17.511 298.602 0.50386 -0.81893 
2.325 441.0 69.229 15.407 288.107 0.48689 -0.85883 
2.350 432.0 66.945 13.571 276.138 0.45359 -0.88987 
2.375 432.0 75.170 11.982 270.000 0.40807 -0.91380 
2.400 423.0 70.640 10.472 280.556 0.35139 -0.93394 
2.425 415.0 69.479 9.186 293.323 0.28944 -0.94903 
2.450 405.0 69.668 8.298 308.146 0.22464 -0.95834 
2.475 405.0 76.917 7.536 321.837 0.16067 -0.96560 
2.500 455.0 65.014 7.139 338.315 0.09113 -0.96911 
2.525 455.0 71.759 6.821 353.844 0.02529 -0.97179 
2.550 455.0 69.840 6.726 9.424 -0.03809 -0.97257 
2.575 455.0 78.263 6.879 23.779 -0.09589 -0.97131 
2.600 455.0 73.885 7.166 37.535 -0.15081 -0.96888 
2.625 442.0 74.543 7.555 50.210 -0.20031 -0.96542 
2.650 433.0 69.937 7.995 61.463 -0.24199 -0.96131 
2.675 433.0 61.669 8.485 71.156 -0.27622 -0.95646 
2.700 443.0 67.090 8.943 83.121 -0.30490 -0.95167 
2.725 443.0 63.186 9.451 90.000 -0.32455 -0.94608 
2.750 443.0 65.324 9.845 83.723 -0.33490 -0.94153 
2.775 455.0 70.248 10.208 74.699 -0.33646 -0.93719 
2.800 455.0 69.246 10.451 67.543 -0.32973 -0.93419 
2.825 455.0 67.437 10.694 59.411 -0.31394 -0.93113 
2.850 455.0 64.531 10.738 52.210 -0.28934 -0.93057 
2.875 455.0 63.086 10.721 44.770 -0.25744 -0.93079 
2.900 455.0 61.384 10.577 37.812 -0.22125 -0.93261 
2.925 455.0 59.984 10.312 31.137 -0.18213 -0.93591 
2.950 455.0 60.630 9.885 24.018 -0.13768 -0.94106 
2.975 455.0 58.972 9.300 17.741 -0.09720 -0.94776 
3.000 465.0 68.807 8.638 11.243 -0.05790 -0.95489 
3.025 465.0 68.588 7.849 5.589 -0.02635 -0.96270 
3.050 465.0 68.487 7.129 0.429 -0.00184 -0.96919 
3.075 465.0 67.875 6.317 355.920 0.01556 -0.97579 
3.100 448.0 68.664 5.409 351.952 0.02628 -0.98223 
3.125 448.0 70.304 4.505 348.876 0.03022 -0.98766 
3.150 448.0 71.021 3.629 347.352 0.02767 -0.99199 
3.175 448.0 70.026 2.826 348.147 0.02023 -0.99514 
3.200 448.0 70.750 2.060 353.115 0.00861 -0.99742 
3.225 448.0 70.471 1.455 7.271 -0.00643 -0.99871 
3.250 448.0 70.839 0.000 180.000 -0.02362 -1.00007 
3.275 448.0 69.849 0.982 90.000 -0.04462 -0.99941 
3.300 448.0 68.473 1.547 90.000 -0.06567 -0.99854 
3.325 448.0 64.850 2.255 90.000 -0.08722 -0.99690 
3.350 448.0 61.674 2.906 90.000 -0.10995 -0.99486 
3.375 448.0 63.276 3.626 90.000 -0.12952 -0.99200 
3.400 448.0 65.665 4.076 90.000 -0.14576 -0.98990 
3.425 448.0 66.732 4.580 85.614 -0.15874 -0.98725 
3.450 448.0 66.995 4.886 86.334 -0.16938 -0.98549 
3.475 448.0 64.878 5.239 76.693 -0.17698 -0.98332 
3.500 448.0 64.866 5.495 73.452 -0.18275 -0.98166 
3.525 448.0 61.546 5.719 70.158 -0.18654 -0.98014 
3.550 448.0 60.434 5.937 65.950 -0.18790 -0.97860 
3.575 448.0 60.096 5.958 65.972 -0.18859 -0.97845 
3.600 458.0 68.661 6.069 63.388 -0.18800 -0.97764 
3.625 458.0 67.317 6.105 61.493 -0.18584 -0.97738 
3.650 458.0 67.041 6.210 57.945 -0.18228 -0.97660 
3.675 458.0 66.985 6.116 57.866 -0.17942 -0.97730 
3.700 458.0 67.390 6.165 55.220 -0.17540 -0.97693 
3.725 458.0 66.428 6.085 54.483 -0.17158 -0.97753 
3.750 458.0 65.922 6.136 51.929 -0.16733 -0.97715 
3.775 458.0 64.212 5.921 53.272 -0.16447 -0.97872 
3.800 458.0 63.515 5.968 51.213 -0.16121 -0.97838 
3.825 468.0 71.085 5.787 52.498 -0.15916 -0.97967 
3.850 468.0 67.571 5.761 52.038 -0.15749 -0.97985 
3.875 468.0 63.195 5.721 51.335 -0.15490 -0.98012 
3.900 468.0 58.602 5.643 51.901 -0.15400 -0.98067 
3.925 483.0 70.162 5.529 53.484 -0.15414 -0.98144 
3.950 483.0 65.605 5.586 52.589 -0.15390 -0.98105 
3.975 483.0 62.071 5.500 53.977 -0.15431 -0.98163 
4.000 493.0 67.495 5.446 55.907 -0.15649 -0.98198 
4.025 493.0 64.850 5.396 57.541 -0.15800 -0.98231 
4.050 493.0 60.430 5.361 59.341 -0.16005 -0.98254 
4.075 504.0 69.116 5.526 57.952 -0.16249 -0.98145 
4.100 504.0 64.876 5.417 61.619 -0.16539 -0.98217 
4.125 504.0 60.514 5.560 60.287 -0.16750 -0.98123 
4.150 516.0 68.677 5.556 62.479 -0.17092 -0.98125 
4.175 516.0 65.525 5.903 57.865 -0.17325 -0.97885 
4.200 516.0 63.047 5.818 60.812 -0.17608 -0.97945 
4.225 516.0 61.971 6.175 56.297 -0.17793 -0.97686 
4.250 527.0 70.438 5.883 63.836 -0.18301 -0.97899 
4.275 527.0 67.706 6.058 62.589 -0.18632 -0.97773 
4.300 586.0 64.462 6.383 57.961 -0.18730 -0.97528 
4.325 586.0 67.498 6.334 60.625 -0.19111 -0.97566 
4.350 586.0 71.002 6.467 58.786 -0.19141 -0.97463 
4.375 586.0 74.596 6.514 60.014 -0.19525 -0.97426 
4.400 586.0 77.713 6.554 59.543 -0.19548 -0.97395 
4.425 574.0 69.377 6.562 60.409 -0.19745 -0.97388 
4.450 574.0 70.501 6.615 59.457 -0.19710 -0.97346 
4.475 574.0 72.034 6.685 59.116 -0.19846 -0.97290 
4.500 574.0 73.232 6.756 58.871 -0.20001 -0.97232 
4.525 574.0 72.555 6.760 59.273 -0.20097 -0.97229 
4.550 574.0 74.000 6.880 58.068 -0.20188 -0.97130 
4.575 574.0 74.020 6.811 58.994 -0.20188 -0.97187 
4.600 574.0 73.680 6.835 59.201 -0.20299 -0.97168 
4.625 574.0 72.670 6.814 59.340 -0.20269 -0.97184 
4.650 574.0 72.631 6.855 58.734 -0.20257 -0.97151 
4.675 574.0 71.474 6.878 58.758 -0.20329 -0.97132 
4.700 574.0 70.772 6.905 58.837 -0.20424 -0.97110 
4.725 574.0 68.179 6.854 59.583 -0.20436 -0.97152 
4.750 574.0 67.761 6.985 58.065 -0.20487 -0.97042 
4.775 574.0 65.950 6.988 58.270 -0.20541 -0.97040 
4.800 574.0 62.612 7.119 56.786 -0.20576 -0.96929 
4.825 574.0 63.219 7.028 58.040 -0.20607 -0.97005 
4.850 587.0 73.240 7.049 58.134 -0.20686 -0.96988 
4.875 587.0 70.447 7.094 58.131 -0.20816 -0.96950 
4.900 587.0 69.175 7.087 58.614 -0.20904 -0.96956 
4.925 587.0 68.415 7.116 58.237 -0.20903 -0.96931 
4.950 587.0 67.083 7.154 58.589 -0.21091 -0.96898 
4.975 587.0 66.392 7.146 58.530 -0.21057 -0.96905 
5.000 587.0 65.303 7.137 59.500 -0.21243 -0.96913 
5.025 587.0 63.293 7.148 60.123 -0.21412 -0.96903 
5.050 587.0 63.119 7.271 58.407 -0.21386 -0.96797 
5.075 587.0 61.974 7.178 60.799 -0.21643 -0.96878 
5.100 587.0 61.380 7.248 59.674 -0.21606 -0.96817 
5.125 602.0 71.067 7.192 60.725 -0.21669 -0.96865 
5.150 602.0 69.806 7.369 59.265 -0.21866 -0.96710 
5.175 602.0 67.346 7.229 61.280 -0.21897 -0.96833 
5.200 602.0 65.965 7.232 62.044 -0.22062 -0.96831 
5.225 602.0 64.510 7.417 59.585 -0.22079 -0.96667 
5.250 602.0 60.798 7.369 61.303 -0.22316 -0.96710 
5.275 602.0 60.323 7.477 60.241 -0.22401 -0.96613 
5.300 614.0 67.901 7.453 61.497 -0.22606 -0.96635 
5.325 614.0 67.288 7.446 61.732 -0.22636 -0.96641 
5.350 614.0 65.939 7.620 59.738 -0.22705 -0.96483 
5.375 614.0 65.409 7.444 62.554 -0.22803 -0.96643 
5.400 614.0 62.670 7.562 60.957 -0.22810 -0.96536 
5.425 614.0 62.301 7.785 58.599 -0.22911 -0.96330 
5.450 614.0 59.951 7.642 60.630 -0.22972 -0.96463 
5.475 626.0 68.799 7.767 59.764 -0.23138 -0.96347 
5.500 626.0 66.669 7.814 60.105 -0.23355 -0.96303 
5.525 626.0 65.684 7.890 59.161 -0.23351 -0.96231 
5.550 626.0 64.223 7.734 61.255 -0.23384 -0.96378 
5.575 626.0 61.600 7.834 61.005 -0.23620 -0.96285 
5.600 638.0 68.123 7.931 59.776 -0.23616 -0.96193 
5.625 638.0 66.069 7.826 62.130 -0.23851 -0.96292 
5.650 638.0 63.937 7.826 62.477 -0.23927 -0.96291 
5.675 638.0 62.401 7.929 61.018 -0.23902 -0.96195 
5.700 638.0 59.897 7.970 60.533 -0.23909 -0.96155 
5.725 655.0 68.181 7.972 61.990 -0.24251 -0.96153 
5.750 655.0 66.383 7.909 63.515 -0.24398 -0.96213 
5.775 655.0 62.548 7.945 62.461 -0.24276 -0.96179 
5.800 655.0 60.258 8.059 62.502 -0.24625 -0.96069 
5.825 669.0 66.597 8.096 62.289 -0.24686 -0.96034 
5.850 669.0 62.991 8.069 62.017 -0.24546 -0.96059 
5.875 684.0 68.901 8.149 62.194 -0.24822 -0.95982 
5.900 684.0 65.374 8.065 62.037 -0.24539 -0.96063 
5.925 684.0 60.049 8.069 64.385 -0.25065 -0.96059 
5.950 705.0 70.991 8.181 63.147 -0.25133 -0.95950 
5.975 705.0 66.343 8.193 62.792 -0.25088 -0.95939 
6.000 705.0 61.593 8.135 63.256 -0.25018 -0.95996 
6.025 718.0 65.477 8.169 64.557 -0.25401 -0.95962 
6.050 718.0 61.435 7.867 67.742 -0.25097 -0.96253 
6.075 718.0 57.268 8.279 63.852 -0.25582 -0.95853 
6.100 737.0 64.940 8.535 59.214 -0.25218 -0.95594 
6.125 737.0 59.504 8.677 58.769 -0.25505 -0.95448 
6.150 759.0 69.995 8.826 60.792 -0.26469 -0.95291 
6.175 759.0 65.324 8.604 60.857 -0.25839 -0.95524 
6.200 759.0 61.643 8.827 59.826 -0.26219 -0.95290 
6.225 780.0 72.571 8.475 58.772 -0.24930 -0.95656 
6.250 780.0 0.000 45.000 0.000 0.00000 0.00000 
6.275 780.0 61.583 8.584 61.273 -0.25885 -0.95544 
6.300 780.0 58.065 8.064 68.013 -0.25757 -0.96065 
6.325 780.0 54.074 8.280 67.202 -0.26275 -0.95852 
6.350 780.0 50.010 8.041 70.017 -0.26035 -0.96086 
6.375 780.0 45.138 8.496 61.555 -0.25695 -0.95635 
6.400 780.0 40.958 8.277 66.418 -0.26112 -0.95855 
6.425 780.0 37.484 8.411 65.139 -0.26258 -0.95721 
6.450 780.0 32.733 8.946 59.714 -0.26530 -0.95164 
6.475 780.0 29.523 7.585 90.000 -0.26720 -0.96515 
6.500 780.0 25.217 9.078 56.872 -0.26095 -0.95021 

# MINIMA:
0.600 405.0 0.000 0.000 0.000 -0.77790 -1.00007 

# MAXIMA:
6.500 4000.5 81.468 45.085 357.482 0.79217 0.00297 

# PEAKS:

# END SPECTRUM


# SPECTRUM:
4

# START TIME:
13:56:15

# END TIME:
14:07:00

# THETA ANGLE:
0.00 ø

# INCIDENCE ANGLE:
70.00 ø

# ACCUMULATION NUMBER:
1

# ELLIPSOMETRIC CONFIGURATION:
-45.00 øModulator
-45.00 øAnalyser

# INTEGRATION TIME:
500 ms

# FIRST POINT:
0.6000 eV

# LAST POINT:
6.5000 eV

# INCREMENT:
0.0250 eV

# NUMBER OF POINTS:
237

# DATA:
eV Hv S0 Psi Delta Is Ic 
0.600 3898.9 44.230 23.918 322.890 0.44722 -0.67124 
0.625 3898.9 62.007 23.143 317.498 0.48833 -0.69107 
0.650 3898.9 64.498 22.009 312.411 0.51305 -0.71912 
0.675 3898.9 63.024 20.972 309.315 0.51714 -0.74379 
0.700 3797.3 79.753 19.725 304.309 0.52484 -0.77219 
0.725 3200.4 78.241 18.428 301.340 0.51228 -0.80016 
0.750 3200.4 76.733 17.091 300.094 0.48609 -0.82726 
0.775 2603.5 81.037 15.646 300.899 0.44569 -0.85452 
0.800 1403.4 74.234 14.201 304.225 0.39330 -0.87963 
0.825 1803.4 60.987 12.849 311.245 0.32604 -0.90109 
0.850 2000.3 68.728 11.730 320.900 0.25108 -0.91733 
0.875 1301.8 71.026 10.637 332.917 0.16519 -0.93185 
0.900 1498.6 66.075 10.119 347.659 0.07393 -0.93827 
0.925 1600.2 61.699 10.039 3.488 -0.02088 -0.93922 
0.950 1701.8 64.471 10.447 18.877 -0.11539 -0.93424 
0.975 1301.8 77.945 11.225 32.873 -0.20728 -0.92421 
1.000 1600.2 63.954 12.331 43.999 -0.28984 -0.90879 
1.025 1600.2 72.705 13.731 52.351 -0.36514 -0.88731 
1.050 1003.3 67.171 15.206 58.259 -0.43050 -0.86241 
1.075 1505.0 69.824 16.550 61.945 -0.48193 -0.83772 
1.100 1505.0 82.085 18.183 63.273 -0.52959 -0.80525 
1.125 1403.4 71.374 19.849 63.226 -0.57025 -0.76943 
1.150 1301.8 74.987 21.818 62.017 -0.60940 -0.72374 
1.175 1301.8 76.128 24.129 60.742 -0.65097 -0.66578 
1.200 1403.4 66.470 26.749 58.974 -0.68884 -0.59485 
1.225 1104.9 73.866 29.712 54.574 -0.70156 -0.50867 
1.250 704.9 63.203 32.520 48.983 -0.68404 -0.42198 
1.275 1206.5 64.150 35.498 42.595 -0.63992 -0.32563 
1.300 1206.5 64.016 38.791 34.345 -0.55098 -0.21504 
1.325 1505.0 69.228 41.812 24.534 -0.41267 -0.11105 
1.350 1104.9 80.749 44.401 10.655 -0.18485 -0.02090 
1.375 1505.0 66.105 45.105 356.895 0.05416 0.00367 
1.400 1308.1 73.827 43.658 340.970 0.32570 -0.04684 
1.425 3905.3 52.462 40.993 330.148 0.49289 -0.13940 
1.450 3905.3 25.368 37.450 319.598 0.62577 -0.26050 
1.475 780.0 77.216 33.326 313.293 0.66826 -0.39631 
1.500 572.0 62.657 30.464 304.524 0.72009 -0.48591 
1.525 683.0 73.431 27.350 299.045 0.71350 -0.57786 
1.550 623.0 74.057 24.817 292.651 0.70314 -0.64768 
1.575 658.0 65.414 22.185 286.789 0.66948 -0.71484 
1.600 658.0 70.196 19.805 280.850 0.62617 -0.77039 
1.625 595.0 72.855 17.606 275.148 0.57428 -0.81702 
1.650 614.0 70.572 15.230 278.480 0.50138 -0.86199 
1.675 596.0 66.781 12.955 286.121 0.41978 -0.89948 
1.700 586.0 69.124 10.835 298.497 0.32453 -0.92932 
1.725 575.0 69.077 9.080 315.275 0.21932 -0.95019 
1.750 560.0 67.607 7.790 336.195 0.10841 -0.96326 
1.775 551.0 68.112 7.304 0.742 -0.00327 -0.96767 
1.800 533.0 72.011 7.529 26.889 -0.11750 -0.96566 
1.825 533.0 79.443 8.730 47.709 -0.22195 -0.95392 
1.850 520.0 75.690 10.245 65.268 -0.31793 -0.93674 
1.875 507.0 69.075 12.060 77.691 -0.39924 -0.91270 
1.900 497.0 73.081 13.935 90.000 -0.46972 -0.88401 
1.925 488.0 71.733 15.807 85.100 -0.52228 -0.85160 
1.950 488.0 78.136 17.726 76.186 -0.56324 -0.81460 
1.975 474.0 72.181 19.484 69.586 -0.58940 -0.77749 
2.000 474.0 77.605 21.279 62.921 -0.60219 -0.73660 
2.025 474.0 78.675 23.102 56.370 -0.60100 -0.69209 
2.050 474.0 74.833 24.793 50.227 -0.58519 -0.64830 
2.075 461.0 69.580 26.638 43.112 -0.54778 -0.59796 
2.100 461.0 73.582 28.331 35.822 -0.48896 -0.54958 
2.125 461.0 70.700 29.835 27.893 -0.40379 -0.50497 
2.150 461.0 71.698 30.949 18.922 -0.28605 -0.47106 
2.175 461.0 74.064 31.447 9.142 -0.14143 -0.45563 
2.200 461.0 72.824 31.126 359.305 0.01074 -0.46557 
2.225 452.0 65.830 29.959 349.481 0.15798 -0.50123 
2.250 452.0 72.432 28.138 340.583 0.27650 -0.55520 
2.275 444.0 69.520 25.955 332.791 0.35986 -0.61689 
2.300 444.0 76.342 23.467 325.779 0.41085 -0.68285 
2.325 433.0 69.730 20.865 319.460 0.43264 -0.74629 
2.350 433.0 76.240 18.452 314.273 0.42996 -0.79964 
2.375 423.0 69.195 16.140 309.891 0.40975 -0.84546 
2.400 423.0 76.661 13.784 305.830 0.37523 -0.88646 
2.425 412.0 68.201 11.413 302.072 0.32872 -0.92169 
2.450 404.0 71.410 9.187 298.420 0.27722 -0.94902 
2.475 404.0 74.827 7.094 297.396 0.21763 -0.96949 
2.500 452.0 61.453 5.133 301.823 0.15144 -0.98399 
2.525 452.0 68.723 3.218 310.140 0.08569 -0.99370 
2.550 452.0 65.869 2.175 343.705 0.02128 -0.99712 
2.575 452.0 74.813 2.368 29.317 -0.04042 -0.99659 
2.600 452.0 70.636 3.641 51.560 -0.09928 -0.99193 
2.625 439.0 72.605 5.326 55.749 -0.15277 -0.98277 
2.650 430.0 69.506 6.878 56.437 -0.19815 -0.97132 
2.675 430.0 63.026 8.370 54.665 -0.23497 -0.95762 
2.700 430.0 59.741 9.784 52.580 -0.26601 -0.94224 
2.725 440.0 69.216 11.137 49.826 -0.28961 -0.92539 
2.750 440.0 75.900 12.305 46.717 -0.30316 -0.90916 
2.775 440.0 70.125 13.305 43.612 -0.30896 -0.89408 
2.800 440.0 66.979 14.257 39.973 -0.30667 -0.87871 
2.825 440.0 67.685 15.055 36.342 -0.29729 -0.86506 
2.850 440.0 65.578 15.763 32.311 -0.27948 -0.85241 
2.875 440.0 66.669 16.280 28.483 -0.25666 -0.84283 
2.900 440.0 66.080 16.635 24.709 -0.22932 -0.83609 
2.925 440.0 64.862 16.828 21.088 -0.19941 -0.83237 
2.950 440.0 66.328 16.876 17.069 -0.16308 -0.83145 
2.975 440.0 64.606 16.706 13.477 -0.12833 -0.83474 
3.000 440.0 63.789 16.398 9.950 -0.09359 -0.84061 
3.025 440.0 61.537 15.946 6.902 -0.06348 -0.84905 
3.050 440.0 61.199 15.411 4.181 -0.03735 -0.85877 
3.075 451.0 72.326 14.834 2.008 -0.01734 -0.86891 
3.100 433.0 67.672 14.062 0.165 -0.00135 -0.88193 
3.125 433.0 69.357 13.373 358.982 0.00800 -0.89301 
3.150 433.0 69.607 12.645 358.259 0.01298 -0.90416 
3.175 433.0 69.933 11.950 358.313 0.01193 -0.91425 
3.200 433.0 66.058 11.262 359.032 0.00647 -0.92371 
3.225 433.0 66.242 10.690 0.397 -0.00253 -0.93118 
3.250 433.0 64.019 10.122 2.482 -0.01498 -0.93822 
3.275 433.0 62.391 9.671 5.306 -0.03063 -0.94356 
3.300 433.0 61.608 9.412 8.625 -0.04839 -0.94652 
3.325 444.0 71.032 9.201 12.485 -0.06825 -0.94886 
3.350 444.0 67.421 9.322 16.144 -0.08889 -0.94753 
3.375 444.0 69.917 9.441 19.361 -0.10729 -0.94619 
3.400 444.0 72.710 9.765 21.727 -0.12375 -0.94247 
3.425 444.0 72.948 10.049 23.597 -0.13755 -0.93911 
3.450 444.0 73.314 10.435 24.690 -0.14881 -0.93439 
3.475 444.0 70.242 10.752 25.525 -0.15795 -0.93040 
3.500 444.0 69.703 11.132 25.877 -0.16536 -0.92545 
3.525 444.0 69.655 11.405 26.075 -0.17041 -0.92179 
3.550 444.0 69.069 11.690 25.906 -0.17337 -0.91789 
3.575 444.0 68.576 11.920 25.752 -0.17561 -0.91468 
3.600 444.0 66.071 12.112 25.379 -0.17586 -0.91194 
3.625 444.0 66.249 12.283 24.933 -0.17525 -0.90948 
3.650 444.0 65.951 12.383 24.623 -0.17454 -0.90802 
3.675 444.0 65.207 12.566 23.857 -0.17177 -0.90534 
3.700 444.0 65.321 12.616 23.487 -0.16989 -0.90459 
3.725 444.0 64.678 12.693 22.958 -0.16722 -0.90344 
3.750 444.0 64.979 12.739 22.508 -0.16467 -0.90276 
3.775 444.0 63.849 12.752 21.992 -0.16124 -0.90255 
3.800 453.0 72.583 12.765 21.647 -0.15898 -0.90236 
3.825 453.0 68.942 12.770 21.194 -0.15587 -0.90228 
3.850 453.0 63.214 12.706 21.072 -0.15429 -0.90325 
3.875 453.0 61.148 12.713 20.685 -0.15166 -0.90315 
3.900 464.0 66.584 12.649 20.719 -0.15118 -0.90410 
3.925 464.0 63.753 12.609 20.733 -0.15083 -0.90469 
3.950 464.0 59.124 12.526 20.755 -0.15006 -0.90592 
3.975 476.0 68.571 12.539 20.748 -0.15016 -0.90573 
4.000 476.0 63.707 12.443 21.218 -0.15230 -0.90714 
4.025 486.0 71.802 12.404 21.221 -0.15187 -0.90772 
4.050 486.0 65.910 12.320 21.724 -0.15431 -0.90895 
4.075 486.0 62.867 12.341 21.914 -0.15585 -0.90863 
4.100 486.0 59.234 12.349 22.064 -0.15695 -0.90853 
4.125 498.0 66.269 12.362 22.526 -0.16023 -0.90834 
4.150 498.0 64.698 12.359 22.729 -0.16157 -0.90837 
4.175 498.0 60.766 12.350 23.023 -0.16342 -0.90851 
4.200 508.0 67.136 12.361 23.437 -0.16634 -0.90835 
4.225 508.0 67.637 12.328 24.004 -0.16971 -0.90882 
4.250 508.0 65.789 12.401 24.218 -0.17207 -0.90777 
4.275 508.0 61.135 12.475 24.302 -0.17360 -0.90667 
4.300 566.0 63.681 12.612 24.440 -0.17633 -0.90464 
4.325 566.0 67.368 12.697 24.619 -0.17865 -0.90338 
4.350 566.0 69.852 12.711 24.950 -0.18108 -0.90317 
4.375 566.0 74.364 12.728 25.151 -0.18268 -0.90291 
4.400 556.0 68.814 12.842 25.047 -0.18349 -0.90120 
4.425 556.0 70.895 12.845 25.316 -0.18537 -0.90115 
4.450 556.0 72.964 12.924 25.430 -0.18721 -0.89996 
4.475 556.0 72.071 12.955 25.369 -0.18721 -0.89948 
4.500 556.0 75.017 13.038 25.458 -0.18895 -0.89821 
4.525 556.0 76.113 13.030 25.598 -0.18980 -0.89834 
4.550 556.0 75.189 13.118 25.652 -0.19137 -0.89698 
4.575 545.0 64.486 13.137 25.568 -0.19104 -0.89670 
4.600 545.0 64.982 13.179 25.564 -0.19159 -0.89604 
4.625 545.0 65.143 13.199 25.590 -0.19204 -0.89573 
4.650 545.0 65.270 13.185 25.694 -0.19258 -0.89594 
4.675 545.0 63.940 13.229 25.684 -0.19309 -0.89527 
4.700 545.0 61.943 13.308 25.578 -0.19342 -0.89403 
4.725 545.0 59.724 13.265 25.761 -0.19413 -0.89470 
4.750 545.0 59.049 13.335 25.680 -0.19451 -0.89360 
4.775 545.0 58.295 13.316 25.862 -0.19553 -0.89390 
4.800 558.0 67.374 13.349 25.780 -0.19540 -0.89339 
4.825 558.0 66.762 13.283 26.027 -0.19624 -0.89442 
4.850 558.0 65.549 13.281 26.058 -0.19643 -0.89445 
4.875 558.0 62.897 13.298 26.082 -0.19683 -0.89419 
4.900 558.0 62.396 13.340 26.204 -0.19827 -0.89352 
4.925 570.0 71.974 13.356 26.254 -0.19883 -0.89328 
4.950 570.0 68.945 13.349 26.301 -0.19907 -0.89339 
4.975 570.0 68.573 13.399 26.367 -0.20023 -0.89260 
5.000 570.0 66.977 13.418 26.361 -0.20045 -0.89231 
5.025 570.0 66.359 13.390 26.697 -0.20242 -0.89275 
5.050 570.0 65.573 13.422 26.722 -0.20305 -0.89224 
5.075 570.0 61.567 13.463 26.790 -0.20410 -0.89160 
5.100 570.0 62.154 13.490 26.796 -0.20452 -0.89117 
5.125 570.0 59.726 13.498 26.942 -0.20567 -0.89103 
5.150 570.0 58.405 13.547 27.023 -0.20693 -0.89027 
5.175 583.0 69.037 13.498 27.100 -0.20679 -0.89103 
5.200 583.0 65.426 13.461 27.376 -0.20819 -0.89163 
5.225 583.0 62.915 13.585 27.485 -0.21074 -0.88966 
5.250 583.0 62.684 13.618 27.511 -0.21140 -0.88912 
5.275 583.0 62.139 13.660 27.351 -0.21086 -0.88846 
5.300 595.0 68.121 13.591 27.766 -0.21281 -0.88956 
5.325 595.0 68.209 13.675 27.598 -0.21283 -0.88822 
5.350 595.0 64.264 13.583 27.877 -0.21348 -0.88969 
5.375 595.0 64.002 13.641 27.866 -0.21424 -0.88877 
5.400 595.0 63.981 13.576 28.260 -0.21607 -0.88980 
5.425 595.0 60.933 13.742 28.205 -0.21812 -0.88713 
5.450 609.0 72.234 13.683 28.298 -0.21791 -0.88809 
5.475 609.0 70.571 13.715 28.524 -0.21997 -0.88758 
5.500 609.0 69.923 13.697 28.628 -0.22044 -0.88787 
5.525 609.0 67.373 13.730 28.791 -0.22209 -0.88734 
5.550 609.0 63.627 13.789 28.657 -0.22202 -0.88638 
5.575 609.0 61.389 13.788 28.466 -0.22064 -0.88640 
5.600 621.0 71.090 13.796 28.785 -0.22303 -0.88626 
5.625 621.0 70.317 13.749 28.897 -0.22312 -0.88703 
5.650 621.0 64.938 13.813 28.928 -0.22430 -0.88599 
5.675 621.0 61.092 13.875 29.192 -0.22710 -0.88498 
5.700 621.0 58.215 13.880 29.202 -0.22724 -0.88491 
5.725 641.0 73.598 13.951 29.105 -0.22761 -0.88375 
5.750 641.0 68.913 13.984 29.258 -0.22920 -0.88322 
5.775 641.0 65.386 13.878 29.657 -0.23043 -0.88494 
5.800 641.0 61.932 13.829 29.659 -0.22970 -0.88573 
5.825 655.0 69.353 14.006 29.816 -0.23352 -0.88285 
5.850 655.0 67.338 14.012 29.631 -0.23229 -0.88276 
5.875 655.0 61.485 14.091 29.791 -0.23464 -0.88145 
5.900 655.0 57.963 13.991 29.876 -0.23372 -0.88310 
5.925 668.0 64.615 14.068 30.394 -0.23858 -0.88183 
5.950 682.0 67.493 14.199 30.241 -0.23953 -0.87966 
5.975 682.0 62.816 14.126 30.152 -0.23776 -0.88088 
6.000 682.0 61.002 14.144 30.353 -0.23947 -0.88058 
6.025 700.0 66.955 14.055 30.177 -0.23685 -0.88204 
6.050 714.0 72.252 14.108 30.487 -0.23987 -0.88117 
6.075 714.0 67.587 14.189 30.550 -0.24158 -0.87983 
6.100 714.0 62.088 14.226 29.708 -0.23610 -0.87921 
6.125 729.0 66.936 14.014 30.603 -0.23922 -0.88272 
6.150 729.0 64.133 14.173 30.861 -0.24355 -0.88010 
6.175 743.0 68.695 14.017 31.316 -0.24429 -0.88267 
6.200 743.0 64.443 14.327 30.318 -0.24207 -0.87752 
6.225 743.0 60.598 14.105 30.633 -0.24086 -0.88122 
6.250 766.0 71.100 14.491 30.478 -0.24576 -0.87478 
6.275 766.0 65.330 14.168 30.853 -0.24341 -0.88018 
6.300 780.0 71.217 14.678 29.892 -0.24432 -0.87159 
6.325 780.0 63.584 14.486 31.398 -0.25236 -0.87485 
6.350 780.0 60.158 14.234 30.638 -0.24291 -0.87909 
6.375 780.0 54.037 14.377 31.473 -0.25115 -0.87670 
6.400 780.0 50.844 14.565 30.088 -0.24405 -0.87351 
6.425 780.0 45.827 14.539 30.417 -0.24606 -0.87396 
6.450 780.0 39.947 14.805 28.942 -0.23910 -0.86941 
6.475 780.0 35.546 14.465 31.368 -0.25180 -0.87522 
6.500 780.0 30.820 14.733 30.194 -0.24739 -0.87065 

# MINIMA:
0.600 404.0 25.368 2.175 0.165 -0.70156 -0.99712 

# MAXIMA:
6.500 3905.3 82.085 45.105 359.305 0.72009 0.00367 

# PEAKS:

# END SPECTRUM


# SPECTRUM:
5

# START TIME:
14:07:51

# END TIME:
14:18:41

# THETA ANGLE:
0.00 ø

# INCIDENCE ANGLE:
75.00 ø

# ACCUMULATION NUMBER:
1

# ELLIPSOMETRIC CONFIGURATION:
-45.00 øModulator
-45.00 øAnalyser

# INTEGRATION TIME:
500 ms

# FIRST POINT:
0.6000 eV

# LAST POINT:
6.5000 eV

# INCREMENT:
0.0250 eV

# NUMBER OF POINTS:
237

# DATA:
eV Hv S0 Psi Delta Is Ic 
0.600 3898.9 58.842 27.675 334.136 0.35887 -0.56855 
0.625 3797.3 80.795 26.960 330.181 0.40189 -0.58891 
0.650 3695.7 78.860 25.739 326.469 0.43217 -0.62281 
0.675 3695.7 77.940 24.536 323.764 0.44661 -0.65511 
0.700 2895.6 78.406 22.971 319.483 0.46687 -0.69539 
0.725 2597.2 78.326 21.167 316.126 0.46675 -0.73923 
0.750 2597.2 76.718 19.411 312.962 0.45876 -0.77911 
0.775 2298.7 78.605 17.281 309.913 0.43512 -0.82352 
0.800 1301.8 67.549 14.933 307.089 0.39723 -0.86720 
0.825 1803.4 63.343 12.423 304.981 0.34427 -0.90744 
0.850 1905.0 61.715 9.830 303.945 0.27910 -0.94170 
0.875 1308.1 68.786 6.961 304.269 0.19883 -0.97062 
0.900 1606.6 71.574 4.294 312.413 0.11025 -0.98879 
0.925 1606.6 60.307 2.832 351.295 0.01494 -0.99512 
0.950 1803.4 65.373 3.693 39.128 -0.08113 -0.99170 
0.975 1301.8 72.018 6.318 53.011 -0.17473 -0.97578 
1.000 1600.2 64.885 9.159 55.265 -0.25828 -0.94933 
1.025 1600.2 74.971 11.902 55.145 -0.33121 -0.91493 
1.050 1003.3 70.709 14.566 53.366 -0.39067 -0.87349 
1.075 1403.4 64.330 16.912 51.854 -0.43776 -0.83076 
1.100 1403.4 75.593 19.399 49.697 -0.47784 -0.77937 
1.125 1301.8 65.333 21.730 47.731 -0.50901 -0.72585 
1.150 1200.2 68.740 24.188 45.921 -0.53701 -0.66423 
1.175 1200.2 76.581 26.823 44.519 -0.56468 -0.59278 
1.200 1301.8 70.232 29.564 43.135 -0.58685 -0.51313 
1.225 1003.3 81.889 32.000 40.434 -0.58293 -0.43837 
1.250 622.3 60.387 34.445 36.811 -0.55897 -0.36017 
1.275 1124.0 78.686 36.833 32.696 -0.51838 -0.28124 
1.300 1022.4 65.499 39.393 27.291 -0.44976 -0.19449 
1.325 1219.2 60.605 41.855 20.956 -0.35549 -0.10955 
1.350 819.2 65.583 44.083 12.010 -0.20798 -0.03201 
1.375 1320.8 66.582 45.025 2.572 -0.04488 0.00087 
1.400 1124.0 79.604 44.695 351.441 0.14882 -0.01065 
1.425 3022.6 61.432 43.200 342.646 0.29769 -0.06278 
1.450 3924.3 36.399 40.686 334.646 0.42336 -0.15003 
1.475 780.0 106.496 37.285 328.667 0.50127 -0.26605 
1.500 551.0 64.503 34.886 322.712 0.56845 -0.34576 
1.525 658.0 69.614 31.977 318.857 0.59113 -0.43908 
1.550 601.0 72.578 29.424 314.844 0.60678 -0.51731 
1.575 640.0 66.647 26.952 311.437 0.60577 -0.58913 
1.600 640.0 68.413 24.076 307.719 0.58924 -0.66716 
1.625 583.0 72.416 21.544 304.417 0.56353 -0.73032 
1.650 607.0 70.142 18.655 301.543 0.51656 -0.79538 
1.675 592.0 69.392 15.612 298.118 0.45720 -0.85515 
1.700 581.0 66.390 12.439 295.958 0.37826 -0.90720 
1.725 581.0 73.635 9.199 295.916 0.28388 -0.94888 
1.750 566.0 71.059 5.872 299.366 0.17737 -0.97907 
1.775 552.0 68.029 3.256 325.968 0.06346 -0.99355 
1.800 535.0 68.941 2.978 31.259 -0.05384 -0.99460 
1.825 525.0 68.838 5.682 55.836 -0.16304 -0.98039 
1.850 516.0 68.750 8.793 61.175 -0.26470 -0.95327 
1.875 506.0 68.440 11.859 59.798 -0.34764 -0.91553 
1.900 493.0 68.881 14.835 57.103 -0.41563 -0.86889 
1.925 493.0 79.473 17.409 54.401 -0.46428 -0.82096 
1.950 475.0 68.097 19.892 50.869 -0.49636 -0.76847 
1.975 475.0 81.430 22.094 47.597 -0.51469 -0.71705 
2.000 460.0 70.467 24.180 43.993 -0.51908 -0.66445 
2.025 460.0 74.526 26.143 40.219 -0.51081 -0.61171 
2.050 460.0 74.804 27.967 36.534 -0.49314 -0.56016 
2.075 446.0 70.626 29.766 32.206 -0.45937 -0.50706 
2.100 446.0 74.531 31.383 27.606 -0.41203 -0.45762 
2.125 446.0 75.271 32.839 22.669 -0.35120 -0.41187 
2.150 446.0 77.337 34.032 16.997 -0.27116 -0.37358 
2.175 446.0 78.549 34.765 10.649 -0.17313 -0.34972 
2.200 438.0 69.218 34.925 4.114 -0.06734 -0.34449 
2.225 438.0 73.077 34.456 357.411 0.04215 -0.35980 
2.250 438.0 76.667 33.425 351.124 0.14187 -0.39313 
2.275 429.0 70.237 31.875 345.671 0.22197 -0.44229 
2.300 429.0 71.911 29.980 340.980 0.28213 -0.50059 
2.325 429.0 79.893 27.845 337.047 0.32212 -0.56367 
2.350 417.0 68.853 25.720 334.071 0.34191 -0.62333 
2.375 417.0 71.027 23.602 332.036 0.34409 -0.67938 
2.400 417.0 76.402 21.377 330.669 0.33254 -0.73428 
2.425 408.0 71.050 19.254 330.541 0.30620 -0.78253 
2.450 397.0 68.719 17.307 331.459 0.27140 -0.82300 
2.475 397.0 74.509 15.527 333.817 0.22761 -0.85669 
2.500 439.0 64.042 13.949 337.957 0.17561 -0.88378 
2.525 439.0 68.101 12.721 343.946 0.11880 -0.90303 
2.550 439.0 64.950 11.949 351.441 0.06029 -0.91426 
2.575 439.0 73.252 11.685 359.291 0.00491 -0.91796 
2.600 439.0 69.532 11.940 7.351 -0.05180 -0.91440 
2.625 427.0 71.684 12.584 14.003 -0.10290 -0.90507 
2.650 419.0 70.181 13.545 18.765 -0.14649 -0.89029 
2.675 419.0 64.829 14.636 21.877 -0.18219 -0.87232 
2.700 419.0 61.001 15.823 23.896 -0.21253 -0.85131 
2.725 419.0 60.108 17.109 24.804 -0.23592 -0.82690 
2.750 419.0 68.106 18.258 24.850 -0.25007 -0.80369 
2.775 419.0 62.251 19.318 24.308 -0.25702 -0.78112 
2.800 419.0 61.315 20.283 23.358 -0.25784 -0.75965 
2.825 419.0 64.132 21.172 21.979 -0.25210 -0.73912 
2.850 419.0 62.315 21.971 20.276 -0.24048 -0.72004 
2.875 419.0 62.837 22.636 18.355 -0.22373 -0.70375 
2.900 419.0 62.348 23.124 16.412 -0.20410 -0.69153 
2.925 419.0 61.339 23.466 14.406 -0.18176 -0.68286 
2.950 419.0 64.826 23.678 12.222 -0.15572 -0.67744 
2.975 419.0 62.467 23.757 10.064 -0.12886 -0.67540 
3.000 419.0 62.149 23.691 7.959 -0.10189 -0.67710 
3.025 419.0 59.618 23.483 6.100 -0.07768 -0.68243 
3.050 419.0 58.913 23.187 4.415 -0.05573 -0.68996 
3.075 431.0 70.580 22.827 2.947 -0.03677 -0.69898 
3.100 416.0 71.384 22.339 1.706 -0.02093 -0.71108 
3.125 416.0 71.714 21.819 0.799 -0.00963 -0.72371 
3.150 416.0 68.866 21.254 0.216 -0.00255 -0.73719 
3.175 416.0 65.524 20.653 359.941 0.00068 -0.75120 
3.200 416.0 65.894 20.105 359.988 0.00013 -0.76369 
3.225 416.0 63.977 19.600 0.405 -0.00447 -0.77495 
3.250 416.0 63.506 19.116 1.123 -0.01213 -0.78550 
3.275 416.0 59.918 18.666 2.118 -0.02241 -0.79514 
3.300 416.0 57.243 18.341 3.406 -0.03549 -0.80197 
3.325 430.0 69.375 18.154 4.860 -0.05017 -0.80585 
3.350 430.0 66.847 17.987 6.563 -0.06714 -0.80929 
3.375 430.0 68.879 18.024 8.110 -0.08301 -0.80853 
3.400 430.0 68.395 18.100 9.433 -0.09680 -0.80697 
3.425 430.0 71.999 18.278 10.505 -0.10859 -0.80327 
3.450 430.0 71.699 18.456 11.512 -0.11986 -0.79956 
3.475 430.0 69.372 18.709 12.205 -0.12846 -0.79423 
3.500 430.0 67.864 18.944 12.664 -0.13463 -0.78922 
3.525 430.0 68.175 19.170 13.068 -0.14026 -0.78433 
3.550 430.0 65.749 19.387 13.308 -0.14416 -0.77962 
3.575 430.0 65.137 19.583 13.457 -0.14698 -0.77532 
3.600 430.0 65.255 19.761 13.391 -0.14738 -0.77138 
3.625 430.0 63.756 19.895 13.468 -0.14905 -0.76839 
3.650 430.0 64.299 20.078 13.320 -0.14858 -0.76428 
3.675 430.0 64.758 20.188 13.186 -0.14777 -0.76181 
3.700 430.0 63.906 20.327 12.963 -0.14615 -0.75865 
3.725 430.0 63.158 20.383 12.772 -0.14435 -0.75739 
3.750 430.0 61.792 20.478 12.577 -0.14273 -0.75521 
3.775 430.0 61.039 20.493 12.411 -0.14096 -0.75488 
3.800 430.0 59.399 20.531 12.163 -0.13840 -0.75399 
3.825 442.0 70.121 20.553 11.990 -0.13658 -0.75349 
3.850 442.0 67.110 20.574 11.800 -0.13456 -0.75302 
3.875 442.0 61.140 20.525 11.691 -0.13307 -0.75413 
3.900 452.0 67.338 20.522 11.608 -0.13213 -0.75420 
3.925 452.0 63.738 20.508 11.623 -0.13222 -0.75452 
3.950 462.0 70.837 20.465 11.610 -0.13184 -0.75550 
3.975 462.0 64.106 20.422 11.521 -0.13062 -0.75650 
4.000 462.0 61.454 20.398 11.597 -0.13134 -0.75703 
4.025 472.0 70.312 20.372 11.744 -0.13285 -0.75763 
4.050 472.0 64.807 20.327 11.786 -0.13307 -0.75867 
4.075 472.0 61.485 20.319 11.827 -0.13349 -0.75883 
4.100 472.0 57.360 20.285 12.036 -0.13562 -0.75962 
4.125 487.0 68.626 20.299 12.144 -0.13690 -0.75928 
4.150 487.0 65.175 20.241 12.349 -0.13885 -0.76061 
4.175 487.0 61.616 20.289 12.456 -0.14031 -0.75953 
4.200 487.0 59.244 20.245 12.695 -0.14269 -0.76052 
4.225 498.0 69.251 20.299 12.800 -0.14418 -0.75929 
4.250 498.0 67.266 20.292 13.086 -0.14730 -0.75946 
4.275 498.0 63.448 20.338 13.079 -0.14749 -0.75841 
4.300 543.0 69.124 20.424 13.211 -0.14948 -0.75644 
4.325 543.0 73.022 20.440 13.377 -0.15142 -0.75609 
4.350 543.0 76.205 20.463 13.567 -0.15367 -0.75555 
4.375 533.0 69.852 20.540 13.646 -0.15503 -0.75378 
4.400 533.0 70.173 20.511 13.691 -0.15534 -0.75446 
4.425 533.0 75.702 20.557 13.858 -0.15749 -0.75341 
4.450 533.0 75.282 20.588 13.930 -0.15849 -0.75269 
4.475 533.0 75.749 20.675 14.034 -0.16020 -0.75070 
4.500 533.0 78.411 20.713 14.130 -0.16152 -0.74981 
4.525 522.0 67.747 20.719 14.172 -0.16204 -0.74968 
4.550 522.0 67.334 20.797 14.176 -0.16258 -0.74787 
4.575 522.0 66.616 20.764 14.143 -0.16199 -0.74864 
4.600 522.0 66.523 20.819 14.279 -0.16387 -0.74736 
4.625 522.0 67.387 20.809 14.350 -0.16461 -0.74759 
4.650 522.0 65.012 20.821 14.307 -0.16421 -0.74732 
4.675 522.0 62.004 20.899 14.324 -0.16490 -0.74550 
4.700 522.0 62.491 20.910 14.339 -0.16513 -0.74524 
4.725 522.0 59.097 20.891 14.386 -0.16555 -0.74568 
4.750 535.0 70.204 20.931 14.419 -0.16618 -0.74476 
4.775 535.0 70.021 20.892 14.409 -0.16581 -0.74566 
4.800 535.0 66.001 20.996 14.477 -0.16725 -0.74325 
4.825 535.0 67.423 20.902 14.508 -0.16699 -0.74544 
4.850 535.0 63.990 20.969 14.471 -0.16701 -0.74388 
4.875 535.0 62.474 20.937 14.604 -0.16830 -0.74461 
4.900 535.0 62.414 20.965 14.709 -0.16967 -0.74395 
4.925 546.0 70.702 20.996 14.700 -0.16977 -0.74323 
4.950 546.0 66.793 20.992 14.743 -0.17023 -0.74334 
4.975 546.0 66.802 21.011 14.857 -0.17164 -0.74289 
5.000 546.0 64.592 21.016 14.876 -0.17189 -0.74277 
5.025 546.0 64.003 20.954 15.036 -0.17329 -0.74421 
5.050 546.0 61.495 21.036 14.906 -0.17237 -0.74230 
5.075 546.0 59.709 21.040 15.060 -0.17413 -0.74221 
5.100 546.0 57.971 21.011 15.053 -0.17386 -0.74290 
5.125 559.0 69.796 21.087 15.261 -0.17672 -0.74110 
5.150 559.0 65.705 21.065 15.261 -0.17657 -0.74162 
5.175 559.0 64.662 21.073 15.341 -0.17753 -0.74144 
5.200 559.0 61.120 21.043 15.374 -0.17770 -0.74214 
5.225 572.0 72.442 21.053 15.426 -0.17835 -0.74192 
5.250 572.0 69.306 21.043 15.624 -0.18051 -0.74213 
5.275 572.0 68.045 21.134 15.569 -0.18052 -0.74000 
5.300 572.0 66.293 21.061 15.744 -0.18198 -0.74173 
5.325 572.0 64.759 21.066 15.733 -0.18190 -0.74160 
5.350 572.0 63.440 21.114 15.781 -0.18278 -0.74047 
5.375 572.0 62.244 21.156 15.883 -0.18423 -0.73950 
5.400 572.0 59.129 21.082 15.804 -0.18281 -0.74124 
5.425 572.0 58.950 21.151 15.911 -0.18451 -0.73961 
5.450 585.0 68.804 21.164 16.050 -0.18617 -0.73931 
5.475 585.0 67.123 21.158 16.059 -0.18622 -0.73945 
5.500 585.0 65.381 21.149 16.282 -0.18868 -0.73966 
5.525 585.0 63.395 21.193 16.189 -0.18795 -0.73863 
5.550 585.0 61.568 21.228 16.265 -0.18905 -0.73780 
5.575 597.0 69.472 21.280 16.463 -0.19168 -0.73656 
5.600 597.0 66.429 21.273 16.366 -0.19052 -0.73674 
5.625 597.0 63.519 21.288 16.430 -0.19136 -0.73639 
5.650 597.0 60.488 21.299 16.561 -0.19292 -0.73613 
5.675 609.0 69.524 21.292 16.569 -0.19297 -0.73628 
5.700 609.0 65.442 21.342 16.614 -0.19384 -0.73510 
5.725 609.0 64.157 21.418 16.722 -0.19562 -0.73329 
5.750 609.0 59.706 21.326 16.823 -0.19610 -0.73548 
5.775 626.0 71.030 21.286 16.945 -0.19718 -0.73643 
5.800 626.0 64.110 21.299 16.945 -0.19727 -0.73612 
5.825 626.0 62.930 21.375 17.016 -0.19865 -0.73432 
5.850 640.0 68.507 21.391 16.964 -0.19818 -0.73395 
5.875 640.0 66.555 21.420 17.135 -0.20033 -0.73327 
5.900 640.0 60.650 21.457 17.234 -0.20173 -0.73237 
5.925 656.0 68.197 21.443 17.043 -0.19946 -0.73271 
5.950 656.0 65.188 21.385 17.323 -0.20219 -0.73408 
5.975 669.0 66.049 21.471 17.060 -0.19986 -0.73205 
6.000 669.0 64.693 21.477 17.338 -0.20306 -0.73191 
6.025 669.0 60.625 21.428 17.222 -0.20138 -0.73305 
6.050 688.0 66.084 21.716 17.145 -0.20266 -0.72620 
6.075 702.0 73.869 21.407 17.524 -0.20464 -0.73355 
6.100 702.0 68.867 21.365 17.733 -0.20668 -0.73455 
6.125 702.0 62.733 21.638 17.673 -0.20810 -0.72807 
6.150 723.0 75.236 21.663 17.643 -0.20796 -0.72746 
6.175 723.0 69.942 21.636 17.784 -0.20936 -0.72810 
6.200 723.0 64.203 21.625 17.923 -0.21085 -0.72838 
6.225 723.0 60.798 21.587 17.670 -0.20768 -0.72929 
6.250 740.0 66.926 21.393 17.659 -0.20606 -0.73390 
6.275 740.0 63.758 21.652 18.097 -0.21304 -0.72772 
6.300 756.0 68.273 21.705 17.282 -0.20415 -0.72645 
6.325 756.0 63.712 21.825 17.360 -0.20595 -0.72357 
6.350 775.0 70.606 21.682 17.605 -0.20766 -0.72702 
6.375 775.0 62.480 21.468 17.406 -0.20377 -0.73212 
6.400 780.0 63.101 21.869 16.469 -0.19600 -0.72251 
6.425 780.0 54.932 21.579 17.678 -0.20771 -0.72946 
6.450 780.0 48.212 21.791 18.422 -0.21786 -0.72439 
6.475 780.0 42.871 21.951 17.790 -0.21186 -0.72053 
6.500 780.0 37.546 21.876 18.040 -0.21416 -0.72233 

# MINIMA:
0.600 397.0 36.399 2.832 0.216 -0.58685 -0.99512 

# MAXIMA:
6.500 3924.3 106.496 45.025 359.988 0.60678 0.00087 

# PEAKS:

# END SPECTRUM

