PE UV                   SPECTRUM    ASCII       PEDS        1.60        
  -1
S19_02.SP
12/04/05
07:57:45.00
12/04/05
08:10:05.00


190.000000
1









4444

SCAN
1
1


0.0
1920.0
2.00
MANUAL



UV/VIS




































#HDR
-1
-1
#GR
NM
%R
0.00002384185791015625
0.0
1000.000000
1.000000
811
8
99.000999
1.220000
#DATA
1000.000000	5.281000  
999.000000	 5.271000  
998.000000	 5.554000  
997.000000	 5.444000  
996.000000	 5.627000  
995.000000	 6.343999  
994.000000	 6.412000  
993.000000	 6.476000  
992.000000	 6.577000  
991.000000	 7.102000  
990.000000	 7.584000  
989.000000	 7.649999  
988.000000	 8.227000  
987.000000	 8.500999  
986.000000	 8.783000  
985.000000	 9.092000  
984.000000	 9.007000  
983.000000	 9.432000  
982.000000	 9.853000  
981.000000	 10.319000 
980.000000	 10.764000 
979.000000	 11.110000 
978.000000	 11.395000 
977.000000	 11.825000 
976.000000	 11.966000 
975.000000	 12.354000 
974.000000	 12.825000 
973.000000	 13.114000 
972.000000	 13.538000 
971.000000	 14.222000 
970.000000	 14.572000 
969.000000	 15.077000 
968.000000	 15.357000 
967.000000	 15.720000 
966.000000	 16.117000 
965.000000	 16.703000 
964.000000	 17.139000 
963.000000	 17.895000 
962.000000	 18.154000 
961.000000	 18.638000 
960.000000	 19.230000 
959.000000	 19.708000 
958.000000	 19.844000 
957.000000	 20.362000 
956.000000	 20.935000 
955.000000	 21.533000 
954.000000	 22.107000 
953.000000	 22.790000 
952.000000	 23.147000 
951.000000	 23.551000 
950.000000	 24.125000 
949.000000	 24.699000 
948.000000	 25.070000 
947.000000	 25.516000 
946.000000	 26.251000 
945.000000	 26.917000 
944.000000	 27.375000 
943.000000	 27.797000 
942.000000	 28.563000 
941.000000	 29.174000 
940.000000	 29.546000 
939.000000	 30.115000 
938.000000	 30.680000 
937.000000	 31.312000 
936.000000	 32.139000 
935.000000	 32.516000 
934.000000	 33.226000 
933.000000	 33.792000 
932.000000	 34.254000 
931.000000	 34.962000 
930.000000	 35.491000 
929.000000	 36.211000 
928.000000	 36.732000 
927.000000	 37.193000 
926.000000	 37.917000 
925.000000	 38.478000 
924.000000	 39.172000 
923.000000	 39.586000 
922.000000	 40.167000 
921.000000	 40.747000 
920.000000	 41.303000 
919.000000	 42.218000 
918.000000	 42.796000 
917.000000	 43.299000 
916.000000	 44.003000 
915.000000	 44.650000 
914.000000	 45.097000 
913.000000	 45.715000 
912.000000	 46.568000 
911.000000	 47.502000 
910.000000	 48.016000 
909.000000	 48.553000 
908.000000	 49.389000 
907.000000	 49.986999 
906.000000	 50.500000 
905.000000	 50.825000 
904.000000	 51.849999 
903.000000	 52.211000 
902.000000	 52.732000 
901.000000	 53.680000 
900.000000	 54.298000 
899.000000	 54.400000 
898.000000	 55.062000 
897.000000	 55.849000 
896.000000	 56.545000 
895.000000	 57.245000 
894.000000	 57.803000 
893.000000	 58.602000 
892.000000	 59.150000 
891.000000	 59.819999 
890.000000	 60.541000 
889.000000	 61.150000 
888.000000	 61.704000 
887.000000	 62.659000 
886.000000	 63.432000 
885.000000	 63.623000 
884.000000	 64.607000 
883.000000	 64.985000 
882.000000	 65.264000 
881.000000	 65.878000 
880.000000	 66.508000 
879.000000	 67.020000 
878.000000	 67.657000 
877.000000	 68.244000 
876.000000	 68.349999 
875.000000	 68.917000 
874.000000	 69.752000 
873.000000	 70.358000 
872.000000	 71.430000 
871.000000	 71.265999 
870.000000	 72.718999 
869.000000	 73.068000 
868.000000	 73.268999 
867.000000	 73.907000 
866.000000	 74.517000 
865.000000	 75.412000 
864.000000	 75.571999 
863.000000	 76.015000 
862.000000	 76.242000 
861.000000	 76.834999 
860.000000	 77.693000 
859.000000	 78.304000 
858.000000	 78.491000 
857.000000	 79.308000 
856.000000	 79.380000 
855.000000	 80.252000 
854.000000	 80.979999 
853.000000	 81.069999 
852.000000	 81.286000 
851.000000	 81.650000 
850.000000	 81.792000 
849.000000	 82.541000 
848.000000	 83.213000 
847.000000	 83.773000 
846.000000	 84.548000 
845.000000	 85.155999 
844.000000	 85.405000 
843.000000	 85.448000 
842.000000	 85.865000 
841.000000	 86.095999 
840.000000	 86.491000 
839.000000	 87.668000 
838.000000	 87.783000 
837.000000	 87.866000 
836.000000	 88.105000 
835.000000	 88.506000 
834.000000	 88.679000 
833.000000	 88.652000 
832.000000	 89.312000 
831.000000	 89.959000 
830.000000	 90.318000 
829.000000	 91.277000 
828.000000	 91.694000 
827.000000	 91.553000 
826.000000	 91.167000 
825.000000	 92.253000 
824.000000	 92.356000 
823.000000	 92.194000 
822.000000	 92.784000 
821.000000	 93.255000 
820.000000	 93.133000 
819.000000	 93.462000 
818.000000	 93.851000 
817.000000	 94.387000 
816.000000	 94.459000 
815.000000	 94.215999 
814.000000	 95.081000 
813.000000	 95.621000 
812.000000	 96.213000 
811.000000	 96.260000 
810.000000	 96.179999 
809.000000	 96.554000 
808.000000	 96.500000 
807.000000	 96.596999 
806.000000	 97.155000 
805.000000	 97.194999 
804.000000	 96.635000 
803.000000	 97.492999 
802.000000	 97.604000 
801.000000	 97.358000 
800.000000	 97.310000 
799.000000	 98.021999 
798.000000	 98.227000 
797.000000	 98.610000 
796.000000	 98.923000 
795.000000	 98.792999 
794.000000	 98.532000 
793.000000	 98.735000 
792.000000	 98.806000 
791.000000	 98.655000 
790.000000	 98.638000 
789.000000	 98.853000 
788.000000	 98.738000 
787.000000	 99.000999 
786.000000	 98.727000 
785.000000	 98.610000 
784.000000	 98.694999 
783.000000	 98.271000 
782.000000	 98.721999 
781.000000	 98.945000 
780.000000	 98.541000 
779.000000	 98.092000 
778.000000	 98.199000 
777.000000	 97.983000 
776.000000	 97.750000 
775.000000	 97.843999 
774.000000	 97.338000 
773.000000	 97.265999 
772.000000	 97.357000 
771.000000	 97.326000 
770.000000	 97.095000 
769.000000	 96.831999 
768.000000	 96.506000 
767.000000	 96.249000 
766.000000	 96.012000 
765.000000	 95.872999 
764.000000	 95.823000 
763.000000	 95.224000 
762.000000	 94.982000 
761.000000	 94.834000 
760.000000	 94.611999 
759.000000	 94.246000 
758.000000	 93.974000 
757.000000	 93.664000 
756.000000	 93.101000 
755.000000	 92.879000 
754.000000	 92.435999 
753.000000	 92.233000 
752.000000	 91.750000 
751.000000	 91.474999 
750.000000	 91.259999 
749.000000	 90.798999 
748.000000	 89.902000 
747.000000	 89.627000 
746.000000	 89.195000 
745.000000	 88.901000 
744.000000	 88.264000 
743.000000	 87.923000 
742.000000	 87.299000 
741.000000	 86.921000 
740.000000	 86.360000 
739.000000	 85.964000 
738.000000	 85.131999 
737.000000	 84.742999 
736.000000	 84.331999 
735.000000	 83.492999 
734.000000	 82.889000 
733.000000	 82.333000 
732.000000	 81.586000 
731.000000	 81.026000 
730.000000	 80.384999 
729.000000	 79.767000 
728.000000	 79.005000 
727.000000	 78.358999 
726.000000	 77.657000 
725.000000	 76.874000 
724.000000	 76.095000 
723.000000	 75.500000 
722.000000	 74.719000 
721.000000	 73.736999 
720.000000	 72.893000 
719.000000	 72.067000 
718.000000	 71.249000 
717.000000	 70.540000 
716.000000	 69.801999 
715.000000	 68.882000 
714.000000	 68.000000 
713.000000	 67.136000 
712.000000	 66.276000 
711.000000	 65.364000 
710.000000	 64.352000 
709.000000	 63.401000 
708.000000	 62.447000 
707.000000	 61.619000 
706.000000	 60.682000 
705.000000	 59.720000 
704.000000	 58.985000 
703.000000	 57.769000 
702.000000	 56.745000 
701.000000	 55.652000 
700.000000	 54.715000 
699.000000	 53.738000 
698.000000	 52.669000 
697.000000	 51.593999 
696.000000	 50.456000 
695.000000	 49.334000 
694.000000	 48.373000 
693.000000	 47.281000 
692.000000	 46.218000 
691.000000	 45.249000 
690.000000	 44.071000 
689.000000	 42.967000 
688.000000	 42.124000 
687.000000	 40.892000 
686.000000	 39.761000 
685.000000	 38.678000 
684.000000	 37.465000 
683.000000	 36.523000 
682.000000	 35.460000 
681.000000	 34.414000 
680.000000	 33.299000 
679.000000	 32.141000 
678.000000	 31.067000 
677.000000	 29.852000 
676.000000	 28.700000 
675.000000	 27.727000 
674.000000	 26.626000 
673.000000	 25.563000 
672.000000	 24.501000 
671.000000	 23.263000 
670.000000	 22.389000 
669.000000	 21.514000 
668.000000	 20.469000 
667.000000	 19.413000 
666.000000	 18.299000 
665.000000	 17.367000 
664.000000	 16.255000 
663.000000	 15.379000 
662.000000	 14.649000 
661.000000	 13.821000 
660.000000	 13.044000 
659.000000	 12.104000 
658.000000	 11.295000 
657.000000	 10.342000 
656.000000	 9.489000  
655.000000	 8.715000  
654.000000	 8.039999  
653.000000	 7.414999  
652.000000	 6.863000  
651.000000	 6.281000  
650.000000	 5.720000  
649.000000	 5.192000  
648.000000	 4.671000  
647.000000	 4.036000  
646.000000	 3.512000  
645.000000	 3.195000  
644.000000	 2.785000  
643.000000	 2.465000  
642.000000	 2.196000  
641.000000	 2.019000  
640.000000	 1.726000  
639.000000	 1.473000  
638.000000	 1.306000  
637.000000	 1.284000  
636.000000	 1.220000  
635.000000	 1.393000  
634.000000	 1.379000  
633.000000	 1.397000  
632.000000	 1.523000  
631.000000	 1.632000  
630.000000	 1.777000  
629.000000	 2.048000  
628.000000	 2.294000  
627.000000	 2.804000  
626.000000	 3.236000  
625.000000	 3.574000  
624.000000	 4.002000  
623.000000	 4.480000  
622.000000	 5.071000  
621.000000	 5.734000  
620.000000	 6.217000  
619.000000	 6.823000  
618.000000	 7.549000  
617.000000	 8.339000  
616.000000	 9.086000  
615.000000	 9.836000  
614.000000	 10.729000 
613.000000	 11.515000 
612.000000	 12.348000 
611.000000	 13.239000 
610.000000	 14.185000 
609.000000	 15.140000 
608.000000	 16.190000 
607.000000	 17.219000 
606.000000	 18.110000 
605.000000	 19.070000 
604.000000	 20.119000 
603.000000	 21.178000 
602.000000	 22.256000 
601.000000	 23.390000 
600.000000	 24.472000 
599.000000	 25.511000 
598.000000	 26.619000 
597.000000	 27.778000 
596.000000	 28.914000 
595.000000	 30.019000 
594.000000	 31.166000 
593.000000	 32.296000 
592.000000	 33.388000 
591.000000	 34.593000 
590.000000	 35.724000 
589.000000	 36.777000 
588.000000	 37.996000 
587.000000	 39.085000 
586.000000	 40.196000 
585.000000	 41.276000 
584.000000	 42.281000 
583.000000	 43.430000 
582.000000	 44.547000 
581.000000	 45.593000 
580.000000	 46.568000 
579.000000	 47.624000 
578.000000	 48.643000 
577.000000	 49.536000 
576.000000	 50.459000 
575.000000	 51.607000 
574.000000	 52.497000 
573.000000	 53.425999 
572.000000	 54.266000 
571.000000	 55.137000 
570.000000	 55.976000 
569.000000	 56.848000 
568.000000	 57.623000 
567.000000	 58.386000 
566.000000	 59.114000 
565.000000	 59.935000 
564.000000	 60.490000 
563.000000	 61.157000 
562.000000	 61.887000 
561.000000	 62.551000 
560.000000	 63.144000 
559.000000	 63.786000 
558.000000	 64.403000 
557.000000	 64.979000 
556.000000	 65.512000 
555.000000	 66.050000 
554.000000	 66.539999 
553.000000	 67.056000 
552.000000	 67.404000 
551.000000	 67.739000 
550.000000	 68.077000 
549.000000	 68.312000 
548.000000	 68.512000 
547.000000	 68.669000 
546.000000	 68.754000 
545.000000	 68.842000 
544.000000	 68.824000 
543.000000	 68.910000 
542.000000	 68.947000 
541.000000	 68.907000 
540.000000	 69.048000 
539.000000	 68.890000 
538.000000	 68.681000 
537.000000	 68.666000 
536.000000	 68.511000 
535.000000	 68.250999 
534.000000	 68.050000 
533.000000	 67.795000 
532.000000	 67.488000 
531.000000	 67.084000 
530.000000	 66.717000 
529.000000	 66.304000 
528.000000	 65.887000 
527.000000	 65.374000 
526.000000	 64.765000 
525.000000	 64.051000 
524.000000	 63.507000 
523.000000	 62.860000 
522.000000	 62.259000 
521.000000	 61.478000 
520.000000	 60.800000 
519.000000	 60.005000 
518.000000	 59.209999 
517.000000	 58.395000 
516.000000	 57.560999 
515.000000	 56.714000 
514.000000	 55.810000 
513.000000	 54.906000 
512.000000	 53.779000 
511.000000	 52.696000 
510.000000	 51.653000 
509.000000	 50.622000 
508.000000	 49.467000 
507.000000	 48.338000 
506.000000	 47.249000 
505.000000	 46.318000 
504.000000	 45.135000 
503.000000	 43.827000 
502.000000	 42.732000 
501.000000	 41.510000 
500.000000	 40.324000 
499.000000	 39.106000 
498.000000	 37.849000 
497.000000	 36.579000 
496.000000	 35.432000 
495.000000	 34.237000 
494.000000	 32.993000 
493.000000	 31.723000 
492.000000	 30.550000 
491.000000	 29.251000 
490.000000	 28.152000 
489.000000	 27.052000 
488.000000	 25.788000 
487.000000	 24.800000 
486.000000	 23.694000 
485.000000	 22.598000 
484.000000	 21.613000 
483.000000	 20.645000 
482.000000	 19.508000 
481.000000	 18.610000 
480.000000	 17.726000 
479.000000	 16.862000 
478.000000	 16.130000 
477.000000	 15.455000 
476.000000	 14.961000 
475.000000	 14.225000 
474.000000	 13.402000 
473.000000	 12.649000 
472.000000	 12.239000 
471.000000	 11.966000 
470.000000	 11.627000 
469.000000	 11.369000 
468.000000	 11.096000 
467.000000	 10.925000 
466.000000	 10.699000 
465.000000	 10.567000 
464.000000	 10.583000 
463.000000	 10.659000 
462.000000	 10.822000 
461.000000	 10.970000 
460.000000	 11.184000 
459.000000	 11.539000 
458.000000	 11.947000 
457.000000	 12.158000 
456.000000	 12.402000 
455.000000	 12.934000 
454.000000	 13.410000 
453.000000	 13.929000 
452.000000	 14.744000 
451.000000	 15.410000 
450.000000	 15.871000 
449.000000	 16.547000 
448.000000	 17.227000 
447.000000	 17.808000 
446.000000	 18.397000 
445.000000	 19.106000 
444.000000	 19.999000 
443.000000	 21.036000 
442.000000	 21.687000 
441.000000	 22.427000 
440.000000	 23.045000 
439.000000	 24.098000 
438.000000	 24.639000 
437.000000	 25.184000 
436.000000	 25.760000 
435.000000	 26.758000 
434.000000	 27.581000 
433.000000	 28.245000 
432.000000	 29.038000 
431.000000	 29.694000 
430.000000	 30.232000 
429.000000	 30.727000 
428.000000	 31.212000 
427.000000	 31.688000 
426.000000	 32.202000 
425.000000	 32.659000 
424.000000	 33.077000 
423.000000	 33.589000 
422.000000	 33.869000 
421.000000	 34.111999 
420.000000	 34.396000 
419.000000	 34.613000 
418.000000	 34.985000 
417.000000	 35.194000 
416.000000	 35.183000 
415.000000	 35.605000 
414.000000	 35.556000 
413.000000	 35.328000 
412.000000	 35.384000 
411.000000	 35.423000 
410.000000	 35.295000 
409.000000	 35.263000 
408.000000	 35.571000 
407.000000	 35.273000 
406.000000	 34.573000 
405.000000	 34.164000 
404.000000	 33.912000 
403.000000	 33.367000 
402.000000	 32.973000 
401.000000	 32.830000 
400.000000	 32.510000 
399.000000	 31.896000 
398.000000	 31.344000 
397.000000	 30.832000 
396.000000	 30.349000 
395.000000	 30.042000 
394.000000	 29.572000 
393.000000	 28.748000 
392.000000	 27.702000 
391.000000	 27.395000 
390.000000	 26.548000 
389.000000	 26.250000 
388.000000	 25.715000 
387.000000	 24.823000 
386.000000	 24.096000 
385.000000	 23.502000 
384.000000	 22.522000 
383.000000	 21.902000 
382.000000	 21.223000 
381.000000	 20.677000 
380.000000	 19.884000 
379.000000	 19.990000 
378.000000	 19.112000 
377.000000	 18.560000 
376.000000	 17.491000 
375.000000	 17.433000 
374.000000	 17.327000 
373.000000	 16.801000 
372.000000	 16.655000 
371.000000	 16.434000 
370.000000	 16.377000 
369.000000	 16.028000 
368.000000	 15.780000 
367.000000	 15.090000 
366.000000	 14.948000 
365.000000	 14.839000 
364.000000	 15.594000 
363.000000	 16.016000 
362.000000	 15.810000 
361.000000	 15.860000 
360.000000	 16.347000 
359.000000	 16.206000 
358.000000	 16.206000 
357.000000	 16.873000 
356.000000	 17.333000 
355.000000	 17.581000 
354.000000	 17.926000 
353.000000	 18.436000 
352.000000	 18.537000 
351.000000	 18.353000 
350.000000	 19.124000 
349.000000	 19.836000 
348.000000	 19.128000 
347.000000	 20.039000 
346.000000	 19.603000 
345.000000	 20.424000 
344.000000	 20.356000 
343.000000	 21.198000 
342.000000	 20.693000 
341.000000	 20.361000 
340.000000	 20.779000 
339.000000	 20.746000 
338.000000	 20.962000 
337.000000	 21.990000 
336.000000	 21.878000 
335.000000	 22.180000 
334.000000	 22.033000 
333.000000	 22.484000 
332.000000	 21.289000 
331.000000	 20.908000 
330.000000	 21.712000 
329.000000	 21.304000 
328.000000	 21.159000 
327.000000	 21.606000 
326.000000	 21.587000 
325.000000	 21.247000 
324.000000	 21.270000 
323.000000	 21.257000 
322.000000	 21.117000 
321.000000	 20.959000 
320.000000	 21.544000 
319.000000	 21.112000 
318.000000	 20.943000 
317.000000	 20.859000 
316.000000	 20.691000 
315.000000	 20.550000 
314.000000	 20.304000 
313.000000	 19.870000 
312.000000	 19.397000 
311.000000	 19.474000 
310.000000	 19.398000 
309.000000	 18.907000 
308.000000	 18.980000 
307.000000	 18.753000 
306.000000	 19.157000 
305.000000	 18.812000 
304.000000	 17.986000 
303.000000	 17.910000 
302.000000	 17.955000 
301.000000	 17.601000 
300.000000	 17.626000 
299.000000	 17.587000 
298.000000	 17.367000 
297.000000	 17.383000 
296.000000	 17.247000 
295.000000	 16.628000 
294.000000	 16.291000 
293.000000	 16.207000 
292.000000	 15.881000 
291.000000	 15.984000 
290.000000	 16.011000 
289.000000	 16.000000 
288.000000	 15.739000 
287.000000	 15.524000 
286.000000	 15.228000 
285.000000	 15.312000 
284.000000	 15.230000 
283.000000	 15.359000 
282.000000	 15.432000 
281.000000	 15.414000 
280.000000	 15.488000 
279.000000	 15.603000 
278.000000	 15.361000 
277.000000	 15.331000 
276.000000	 15.573000 
275.000000	 15.341000 
274.000000	 15.501000 
273.000000	 15.628000 
272.000000	 15.547000 
271.000000	 15.520000 
270.000000	 15.274000 
269.000000	 15.093000 
268.000000	 15.271000 
267.000000	 15.304000 
266.000000	 15.380000 
265.000000	 15.621000 
264.000000	 15.765000 
263.000000	 15.665000 
262.000000	 15.608000 
261.000000	 15.907000 
260.000000	 15.714000 
259.000000	 15.628000 
258.000000	 15.687000 
257.000000	 15.760000 
256.000000	 16.173000 
255.000000	 15.997000 
254.000000	 16.368000 
253.000000	 16.232000 
252.000000	 16.414000 
251.000000	 16.458000 
250.000000	 16.172000 
249.000000	 16.414000 
248.000000	 16.590000 
247.000000	 16.727000 
246.000000	 16.873000 
245.000000	 17.231000 
244.000000	 17.093000 
243.000000	 17.214000 
242.000000	 17.279000 
241.000000	 17.120000 
240.000000	 17.360000 
239.000000	 17.319000 
238.000000	 17.446000 
237.000000	 17.704000 
236.000000	 17.163000 
235.000000	 17.413000 
234.000000	 17.550000 
233.000000	 17.621000 
232.000000	 17.394000 
231.000000	 17.341000 
230.000000	 18.094000 
229.000000	 17.670000 
228.000000	 17.068000 
227.000000	 17.062000 
226.000000	 17.138000 
225.000000	 16.684000 
224.000000	 16.729000 
223.000000	 17.139000 
222.000000	 17.036000 
221.000000	 17.238000 
220.000000	 17.350000 
219.000000	 17.430000 
218.000000	 16.897000 
217.000000	 16.275000 
216.000000	 17.112000 
215.000000	 16.956000 
214.000000	 16.468000 
213.000000	 18.344000 
212.000000	 18.807000 
211.000000	 16.566000 
210.000000	 17.279000 
209.000000	 20.167000 
208.000000	 16.003000 
207.000000	 16.637000 
206.000000	 16.490000 
205.000000	 13.742000 
204.000000	 15.374000 
203.000000	 19.989000 
202.000000	 20.545000 
201.000000	 19.219000 
200.000000	 19.690000 
199.000000	 21.098000 
198.000000	 19.921000 
197.000000	 17.572000 
196.000000	 16.587000 
195.000000	 25.697000 
194.000000	 23.814000 
193.000000	 37.918000 
192.000000	 45.978000 
191.000000	 24.422000 
190.000000	 25.917000 

