PE UV                   SPECTRUM    ASCII       PEDS        1.60        
  -1
S19_06.SP
12/04/05
08:05:20.00
12/04/05
08:10:05.00


190.000000
1









4444

SCAN
1
1


0.0
1920.0
2.00
MANUAL



UV/VIS




































#HDR
-1
-1
#GR
NM
%R
0.00002384185791015625
0.0
1000.000000
1.000000
811
8
95.273000
1.360000
#DATA
1000.000000	4.952000  
999.000000	 5.494000  
998.000000	 5.390000  
997.000000	 5.602000  
996.000000	 6.045000  
995.000000	 6.040999  
994.000000	 6.124000  
993.000000	 6.479000  
992.000000	 6.877999  
991.000000	 6.642000  
990.000000	 7.160000  
989.000000	 7.885000  
988.000000	 8.083000  
987.000000	 8.031000  
986.000000	 8.317000  
985.000000	 8.629000  
984.000000	 8.948000  
983.000000	 9.402000  
982.000000	 9.763000  
981.000000	 10.075000 
980.000000	 10.508000 
979.000000	 11.064000 
978.000000	 11.130000 
977.000000	 11.390000 
976.000000	 11.653000 
975.000000	 12.136000 
974.000000	 12.671000 
973.000000	 12.955000 
972.000000	 13.375000 
971.000000	 13.879000 
970.000000	 14.337000 
969.000000	 14.863000 
968.000000	 15.110000 
967.000000	 15.149000 
966.000000	 15.703000 
965.000000	 16.411000 
964.000000	 16.658000 
963.000000	 16.961000 
962.000000	 17.648000 
961.000000	 18.147000 
960.000000	 18.273000 
959.000000	 18.875000 
958.000000	 19.556000 
957.000000	 19.890000 
956.000000	 20.138000 
955.000000	 20.749000 
954.000000	 21.454000 
953.000000	 21.812000 
952.000000	 22.166000 
951.000000	 22.625000 
950.000000	 23.197000 
949.000000	 23.686000 
948.000000	 24.073000 
947.000000	 24.760000 
946.000000	 25.448000 
945.000000	 26.043000 
944.000000	 26.542000 
943.000000	 26.889000 
942.000000	 27.380000 
941.000000	 27.913000 
940.000000	 28.552000 
939.000000	 29.132000 
938.000000	 29.736000 
937.000000	 30.354000 
936.000000	 30.902000 
935.000000	 31.302000 
934.000000	 31.943000 
933.000000	 32.597000 
932.000000	 33.140000 
931.000000	 33.825000 
930.000000	 34.466000 
929.000000	 35.011000 
928.000000	 35.530000 
927.000000	 36.065000 
926.000000	 36.778000 
925.000000	 37.410000 
924.000000	 37.903000 
923.000000	 38.324000 
922.000000	 38.895000 
921.000000	 39.612000 
920.000000	 40.290000 
919.000000	 40.901000 
918.000000	 41.488000 
917.000000	 41.990000 
916.000000	 42.703000 
915.000000	 43.312000 
914.000000	 43.765000 
913.000000	 44.432000 
912.000000	 45.193000 
911.000000	 46.026000 
910.000000	 46.627000 
909.000000	 46.946000 
908.000000	 47.813000 
907.000000	 48.421000 
906.000000	 48.836000 
905.000000	 49.079000 
904.000000	 49.961000 
903.000000	 51.098000 
902.000000	 51.054000 
901.000000	 51.805000 
900.000000	 52.538000 
899.000000	 53.176000 
898.000000	 53.993000 
897.000000	 54.596999 
896.000000	 54.883000 
895.000000	 55.474999 
894.000000	 56.235000 
893.000000	 56.833000 
892.000000	 57.019000 
891.000000	 57.461000 
890.000000	 58.109999 
889.000000	 58.452000 
888.000000	 58.909000 
887.000000	 59.483000 
886.000000	 59.949000 
885.000000	 60.556000 
884.000000	 60.533000 
883.000000	 62.312000 
882.000000	 63.186000 
881.000000	 63.683000 
880.000000	 64.083000 
879.000000	 64.885000 
878.000000	 66.015999 
877.000000	 65.911000 
876.000000	 65.860000 
875.000000	 66.891000 
874.000000	 67.322999 
873.000000	 68.095000 
872.000000	 68.343000 
871.000000	 69.617999 
870.000000	 69.855000 
869.000000	 70.406000 
868.000000	 70.804999 
867.000000	 71.201000 
866.000000	 72.228000 
865.000000	 72.401000 
864.000000	 72.200000 
863.000000	 72.786000 
862.000000	 73.584999 
861.000000	 74.214000 
860.000000	 74.739000 
859.000000	 75.173000 
858.000000	 75.863000 
857.000000	 76.553000 
856.000000	 77.114000 
855.000000	 77.200999 
854.000000	 77.531000 
853.000000	 78.038000 
852.000000	 79.286999 
851.000000	 79.894000 
850.000000	 79.934000 
849.000000	 80.470000 
848.000000	 81.242999 
847.000000	 81.344000 
846.000000	 81.681000 
845.000000	 81.805000 
844.000000	 82.476000 
843.000000	 82.758000 
842.000000	 82.977999 
841.000000	 83.486000 
840.000000	 84.045000 
839.000000	 84.696000 
838.000000	 84.836999 
837.000000	 85.311000 
836.000000	 85.350000 
835.000000	 85.996000 
834.000000	 86.749000 
833.000000	 86.779000 
832.000000	 87.074000 
831.000000	 87.361999 
830.000000	 87.908000 
829.000000	 87.929999 
828.000000	 87.973000 
827.000000	 88.999000 
826.000000	 89.086000 
825.000000	 89.175000 
824.000000	 90.147000 
823.000000	 90.447999 
822.000000	 90.358999 
821.000000	 90.703999 
820.000000	 90.663000 
819.000000	 90.983999 
818.000000	 91.049000 
817.000000	 91.750000 
816.000000	 91.944999 
815.000000	 91.863000 
814.000000	 91.863000 
813.000000	 92.044000 
812.000000	 92.355000 
811.000000	 92.428999 
810.000000	 92.532000 
809.000000	 92.929000 
808.000000	 93.235999 
807.000000	 93.250999 
806.000000	 93.536000 
805.000000	 93.747000 
804.000000	 93.806000 
803.000000	 93.813000 
802.000000	 93.715000 
801.000000	 93.483000 
800.000000	 93.583000 
799.000000	 93.852000 
798.000000	 93.959000 
797.000000	 94.435999 
796.000000	 94.511000 
795.000000	 94.411000 
794.000000	 94.572999 
793.000000	 94.440000 
792.000000	 94.357000 
791.000000	 94.581999 
790.000000	 94.509000 
789.000000	 94.438000 
788.000000	 94.889000 
787.000000	 94.361999 
786.000000	 94.835000 
785.000000	 94.839000 
784.000000	 95.273000 
783.000000	 95.029000 
782.000000	 94.747000 
781.000000	 94.527000 
780.000000	 94.750999 
779.000000	 94.342000 
778.000000	 94.299000 
777.000000	 94.527000 
776.000000	 94.710000 
775.000000	 94.488000 
774.000000	 94.499000 
773.000000	 94.372999 
772.000000	 94.316999 
771.000000	 93.828999 
770.000000	 93.858000 
769.000000	 93.711999 
768.000000	 93.423999 
767.000000	 93.264000 
766.000000	 92.994000 
765.000000	 92.588000 
764.000000	 92.474999 
763.000000	 92.408000 
762.000000	 92.093999 
761.000000	 91.801999 
760.000000	 91.388000 
759.000000	 91.085000 
758.000000	 91.066000 
757.000000	 90.747000 
756.000000	 90.480999 
755.000000	 90.234000 
754.000000	 89.771000 
753.000000	 89.246000 
752.000000	 88.937000 
751.000000	 88.390999 
750.000000	 88.003000 
749.000000	 87.711000 
748.000000	 87.288000 
747.000000	 87.241000 
746.000000	 86.733000 
745.000000	 86.256000 
744.000000	 85.819999 
743.000000	 85.252000 
742.000000	 84.782000 
741.000000	 84.489000 
740.000000	 83.765000 
739.000000	 83.208000 
738.000000	 82.854000 
737.000000	 82.283000 
736.000000	 81.652000 
735.000000	 81.033999 
734.000000	 80.530000 
733.000000	 80.071000 
732.000000	 79.245000 
731.000000	 78.589000 
730.000000	 77.959000 
729.000000	 77.325000 
728.000000	 76.645000 
727.000000	 75.983999 
726.000000	 75.324000 
725.000000	 74.736000 
724.000000	 73.898000 
723.000000	 73.131000 
722.000000	 72.402000 
721.000000	 71.595000 
720.000000	 70.831000 
719.000000	 70.202000 
718.000000	 69.455999 
717.000000	 68.569000 
716.000000	 67.884000 
715.000000	 66.974999 
714.000000	 66.063000 
713.000000	 65.325000 
712.000000	 64.424000 
711.000000	 63.590000 
710.000000	 62.708000 
709.000000	 62.008000 
708.000000	 60.995000 
707.000000	 60.091000 
706.000000	 59.229000 
705.000000	 58.254000 
704.000000	 57.304000 
703.000000	 56.311000 
702.000000	 55.427000 
701.000000	 54.379000 
700.000000	 53.408999 
699.000000	 52.519000 
698.000000	 51.456000 
697.000000	 50.444000 
696.000000	 49.430000 
695.000000	 48.435000 
694.000000	 47.374000 
693.000000	 46.351000 
692.000000	 45.383000 
691.000000	 44.229000 
690.000000	 43.134000 
689.000000	 42.143000 
688.000000	 41.215000 
687.000000	 40.206000 
686.000000	 38.998000 
685.000000	 37.974999 
684.000000	 36.822000 
683.000000	 35.719000 
682.000000	 34.795000 
681.000000	 33.659000 
680.000000	 32.586000 
679.000000	 31.565000 
678.000000	 30.467000 
677.000000	 29.445000 
676.000000	 28.327000 
675.000000	 27.332000 
674.000000	 26.243000 
673.000000	 25.221000 
672.000000	 24.253000 
671.000000	 23.075000 
670.000000	 22.104000 
669.000000	 21.229000 
668.000000	 20.310000 
667.000000	 19.301000 
666.000000	 18.018000 
665.000000	 17.122000 
664.000000	 16.152000 
663.000000	 15.358000 
662.000000	 14.545000 
661.000000	 13.784000 
660.000000	 12.830000 
659.000000	 12.134000 
658.000000	 11.369000 
657.000000	 10.382000 
656.000000	 9.390000  
655.000000	 8.776999  
654.000000	 8.125999  
653.000000	 7.519000  
652.000000	 7.013000  
651.000000	 6.365000  
650.000000	 5.773000  
649.000000	 5.256000  
648.000000	 4.686000  
647.000000	 4.034000  
646.000000	 3.657000  
645.000000	 3.327000  
644.000000	 3.075000  
643.000000	 2.703000  
642.000000	 2.414000  
641.000000	 2.115000  
640.000000	 1.780000  
639.000000	 1.666000  
638.000000	 1.509000  
637.000000	 1.360000  
636.000000	 1.398000  
635.000000	 1.514000  
634.000000	 1.476000  
633.000000	 1.457000  
632.000000	 1.496000  
631.000000	 1.632000  
630.000000	 1.865000  
629.000000	 2.089000  
628.000000	 2.365000  
627.000000	 2.671000  
626.000000	 3.052000  
625.000000	 3.555000  
624.000000	 4.025000  
623.000000	 4.431000  
622.000000	 4.900000  
621.000000	 5.437000  
620.000000	 5.910000  
619.000000	 6.532999  
618.000000	 7.234000  
617.000000	 7.982000  
616.000000	 8.694000  
615.000000	 9.375999  
614.000000	 10.175000 
613.000000	 11.008000 
612.000000	 11.772000 
611.000000	 12.711000 
610.000000	 13.603000 
609.000000	 14.464000 
608.000000	 15.354000 
607.000000	 16.309000 
606.000000	 17.305000 
605.000000	 18.241000 
604.000000	 19.203000 
603.000000	 20.174000 
602.000000	 21.226000 
601.000000	 22.314000 
600.000000	 23.363000 
599.000000	 24.486000 
598.000000	 25.512000 
597.000000	 26.506000 
596.000000	 27.599000 
595.000000	 28.673000 
594.000000	 29.785000 
593.000000	 30.835000 
592.000000	 31.892000 
591.000000	 33.083000 
590.000000	 34.152000 
589.000000	 35.210000 
588.000000	 36.326000 
587.000000	 37.356000 
586.000000	 38.435000 
585.000000	 39.508000 
584.000000	 40.524000 
583.000000	 41.664000 
582.000000	 42.700000 
581.000000	 43.800000 
580.000000	 44.815000 
579.000000	 45.816000 
578.000000	 46.670000 
577.000000	 47.630000 
576.000000	 48.612000 
575.000000	 49.525000 
574.000000	 50.450000 
573.000000	 51.375000 
572.000000	 52.222000 
571.000000	 53.110000 
570.000000	 53.912000 
569.000000	 54.671000 
568.000000	 55.572000 
567.000000	 56.169999 
566.000000	 57.041000 
565.000000	 57.813000 
564.000000	 58.497000 
563.000000	 59.097999 
562.000000	 59.685999 
561.000000	 60.322000 
560.000000	 60.897000 
559.000000	 61.364000 
558.000000	 61.868000 
557.000000	 62.259000 
556.000000	 62.659000 
555.000000	 63.041000 
554.000000	 63.338000 
553.000000	 63.704000 
552.000000	 64.015000 
551.000000	 64.242999 
550.000000	 64.523000 
549.000000	 64.837000 
548.000000	 65.161999 
547.000000	 65.523000 
546.000000	 65.697000 
545.000000	 65.820000 
544.000000	 65.956999 
543.000000	 66.001000 
542.000000	 65.986999 
541.000000	 66.038000 
540.000000	 65.976000 
539.000000	 65.884000 
538.000000	 65.852999 
537.000000	 65.656000 
536.000000	 65.464000 
535.000000	 65.230000 
534.000000	 64.966000 
533.000000	 64.700000 
532.000000	 64.532000 
531.000000	 64.180000 
530.000000	 63.830000 
529.000000	 63.389000 
528.000000	 63.061000 
527.000000	 62.529000 
526.000000	 61.995000 
525.000000	 61.271000 
524.000000	 60.806000 
523.000000	 60.124999 
522.000000	 59.565000 
521.000000	 58.946000 
520.000000	 58.252000 
519.000000	 57.449000 
518.000000	 56.650000 
517.000000	 55.860000 
516.000000	 55.049000 
515.000000	 54.199000 
514.000000	 53.471000 
513.000000	 52.532999 
512.000000	 51.530000 
511.000000	 50.633000 
510.000000	 49.625000 
509.000000	 48.543000 
508.000000	 47.586000 
507.000000	 46.502000 
506.000000	 45.530000 
505.000000	 44.454000 
504.000000	 43.419000 
503.000000	 42.318000 
502.000000	 41.232000 
501.000000	 40.091000 
500.000000	 38.942000 
499.000000	 37.849000 
498.000000	 36.621000 
497.000000	 35.438000 
496.000000	 34.322000 
495.000000	 33.119000 
494.000000	 31.900000 
493.000000	 30.718000 
492.000000	 29.557000 
491.000000	 28.339000 
490.000000	 27.218000 
489.000000	 26.034000 
488.000000	 24.922000 
487.000000	 24.000000 
486.000000	 22.881000 
485.000000	 21.891000 
484.000000	 20.882000 
483.000000	 19.837000 
482.000000	 18.919000 
481.000000	 18.077000 
480.000000	 17.174000 
479.000000	 16.363000 
478.000000	 15.784000 
477.000000	 15.039000 
476.000000	 14.321000 
475.000000	 13.768000 
474.000000	 12.995000 
473.000000	 12.591000 
472.000000	 12.159000 
471.000000	 11.504000 
470.000000	 11.247000 
469.000000	 11.034000 
468.000000	 10.840000 
467.000000	 10.534000 
466.000000	 10.373000 
465.000000	 10.243000 
464.000000	 10.230000 
463.000000	 10.300000 
462.000000	 10.421000 
461.000000	 10.563000 
460.000000	 10.805000 
459.000000	 11.147000 
458.000000	 11.402000 
457.000000	 11.652000 
456.000000	 12.093000 
455.000000	 12.404000 
454.000000	 12.785000 
453.000000	 13.408000 
452.000000	 14.092000 
451.000000	 14.716000 
450.000000	 15.247000 
449.000000	 15.765000 
448.000000	 16.286000 
447.000000	 16.885000 
446.000000	 17.737000 
445.000000	 18.378000 
444.000000	 19.085000 
443.000000	 20.021000 
442.000000	 20.662000 
441.000000	 21.300000 
440.000000	 22.218000 
439.000000	 22.720000 
438.000000	 23.264000 
437.000000	 24.036000 
436.000000	 24.821000 
435.000000	 25.569000 
434.000000	 26.210000 
433.000000	 26.934000 
432.000000	 27.602000 
431.000000	 28.272000 
430.000000	 28.688000 
429.000000	 29.174000 
428.000000	 29.999000 
427.000000	 30.397000 
426.000000	 30.872000 
425.000000	 31.453000 
424.000000	 31.660000 
423.000000	 32.281000 
422.000000	 32.664000 
421.000000	 32.895000 
420.000000	 32.891000 
419.000000	 33.212000 
418.000000	 33.566000 
417.000000	 33.640000 
416.000000	 34.008000 
415.000000	 34.012000 
414.000000	 33.928999 
413.000000	 33.843000 
412.000000	 33.843000 
411.000000	 33.947000 
410.000000	 33.901000 
409.000000	 33.928999 
408.000000	 33.514000 
407.000000	 33.196000 
406.000000	 33.444000 
405.000000	 33.262000 
404.000000	 32.639000 
403.000000	 32.351000 
402.000000	 31.665000 
401.000000	 31.242000 
400.000000	 30.858000 
399.000000	 30.689000 
398.000000	 30.173000 
397.000000	 29.943000 
396.000000	 29.458000 
395.000000	 28.623000 
394.000000	 28.080000 
393.000000	 28.027000 
392.000000	 27.029000 
391.000000	 26.212000 
390.000000	 25.838000 
389.000000	 25.402000 
388.000000	 24.615000 
387.000000	 23.945000 
386.000000	 23.122000 
385.000000	 22.611000 
384.000000	 21.831000 
383.000000	 21.182000 
382.000000	 20.892000 
381.000000	 19.400000 
380.000000	 19.315000 
379.000000	 18.767000 
378.000000	 18.157000 
377.000000	 17.170000 
376.000000	 16.909000 
375.000000	 16.665000 
374.000000	 16.120000 
373.000000	 16.192000 
372.000000	 16.341000 
371.000000	 15.718000 
370.000000	 15.363000 
369.000000	 15.336000 
368.000000	 14.867000 
367.000000	 14.624000 
366.000000	 14.760000 
365.000000	 14.583000 
364.000000	 14.999000 
363.000000	 15.330000 
362.000000	 15.593000 
361.000000	 15.673000 
360.000000	 14.993000 
359.000000	 15.311000 
358.000000	 15.907000 
357.000000	 16.205000 
356.000000	 16.265000 
355.000000	 16.856000 
354.000000	 17.505000 
353.000000	 17.275000 
352.000000	 17.573000 
351.000000	 18.077000 
350.000000	 17.858000 
349.000000	 18.131000 
348.000000	 18.521000 
347.000000	 18.449000 
346.000000	 19.391000 
345.000000	 19.673000 
344.000000	 20.051000 
343.000000	 19.991000 
342.000000	 19.955000 
341.000000	 20.296000 
340.000000	 20.451000 
339.000000	 20.397000 
338.000000	 21.046000 
337.000000	 21.434000 
336.000000	 21.001000 
335.000000	 21.426000 
334.000000	 21.280000 
333.000000	 20.222000 
332.000000	 20.848000 
331.000000	 20.830000 
330.000000	 20.715000 
329.000000	 21.548000 
328.000000	 22.217000 
327.000000	 21.354000 
326.000000	 20.652000 
325.000000	 20.693000 
324.000000	 20.511000 
323.000000	 20.222000 
322.000000	 20.241000 
321.000000	 20.072000 
320.000000	 19.784000 
319.000000	 19.549000 
318.000000	 19.376000 
317.000000	 19.406000 
316.000000	 19.924000 
315.000000	 19.825000 
314.000000	 19.454000 
313.000000	 18.927000 
312.000000	 18.634000 
311.000000	 18.716000 
310.000000	 18.594000 
309.000000	 18.284000 
308.000000	 18.521000 
307.000000	 17.860000 
306.000000	 18.024000 
305.000000	 18.172000 
304.000000	 18.171000 
303.000000	 17.241000 
302.000000	 16.690000 
301.000000	 16.673000 
300.000000	 16.877000 
299.000000	 16.935000 
298.000000	 16.695000 
297.000000	 16.476000 
296.000000	 16.743000 
295.000000	 16.174000 
294.000000	 15.863000 
293.000000	 15.653000 
292.000000	 15.498000 
291.000000	 15.683000 
290.000000	 15.405000 
289.000000	 15.280000 
288.000000	 15.414000 
287.000000	 14.987000 
286.000000	 14.637000 
285.000000	 14.538000 
284.000000	 14.534000 
283.000000	 14.640000 
282.000000	 14.920000 
281.000000	 15.115000 
280.000000	 14.995000 
279.000000	 14.794000 
278.000000	 14.691000 
277.000000	 14.681000 
276.000000	 14.586000 
275.000000	 14.535000 
274.000000	 14.762000 
273.000000	 14.978000 
272.000000	 14.877000 
271.000000	 14.928000 
270.000000	 14.963000 
269.000000	 14.886000 
268.000000	 14.924000 
267.000000	 14.888000 
266.000000	 14.864000 
265.000000	 14.948000 
264.000000	 15.199000 
263.000000	 15.670000 
262.000000	 15.596000 
261.000000	 15.431000 
260.000000	 14.917000 
259.000000	 15.045000 
258.000000	 15.235000 
257.000000	 15.167000 
256.000000	 15.475000 
255.000000	 15.463000 
254.000000	 15.856000 
253.000000	 15.783000 
252.000000	 15.704000 
251.000000	 15.651000 
250.000000	 15.660000 
249.000000	 15.611000 
248.000000	 15.608000 
247.000000	 16.370000 
246.000000	 16.250000 
245.000000	 16.362000 
244.000000	 16.533000 
243.000000	 16.588000 
242.000000	 16.567000 
241.000000	 16.666000 
240.000000	 16.597000 
239.000000	 16.680000 
238.000000	 16.633000 
237.000000	 16.857000 
236.000000	 17.066000 
235.000000	 17.038000 
234.000000	 17.153000 
233.000000	 16.827000 
232.000000	 16.423000 
231.000000	 16.332000 
230.000000	 16.596000 
229.000000	 16.411000 
228.000000	 16.355000 
227.000000	 16.536000 
226.000000	 16.680000 
225.000000	 16.517000 
224.000000	 16.739000 
223.000000	 16.116000 
222.000000	 16.435000 
221.000000	 16.359000 
220.000000	 16.910000 
219.000000	 17.524000 
218.000000	 16.959000 
217.000000	 16.453000 
216.000000	 17.002000 
215.000000	 17.226000 
214.000000	 16.769000 
213.000000	 16.551000 
212.000000	 16.277000 
211.000000	 18.320000 
210.000000	 17.258000 
209.000000	 16.855000 
208.000000	 17.129000 
207.000000	 15.359000 
206.000000	 14.324000 
205.000000	 15.728000 
204.000000	 16.732000 
203.000000	 17.845000 
202.000000	 15.789000 
201.000000	 18.264000 
200.000000	 18.207000 
199.000000	 14.108000 
198.000000	 13.041000 
197.000000	 13.876000 
196.000000	 13.174000 
195.000000	 15.474000 
194.000000	 17.905000 
193.000000	 16.825000 
192.000000	 20.410000 
191.000000	 19.797000 
190.000000	 12.966000 

