PE UV                   SPECTRUM    ASCII       PEDS        1.60        
  -1
S19_08.SP
12/04/05
08:09:13.00
12/04/05
08:10:04.00


193.000000
1









4444

SCAN
1
1


0.0
1920.0
2.00
MANUAL



UV/VIS




































#HDR
-1
-1
#GR
NM
%R
0.00002384185791015625
0.0
1000.000000
1.000000
808
8
96.366000
1.104000
#DATA
1000.000000	4.912000  
999.000000	 5.138000  
998.000000	 5.710000  
997.000000	 5.795000  
996.000000	 5.922000  
995.000000	 5.978000  
994.000000	 6.274000  
993.000000	 6.694999  
992.000000	 6.768000  
991.000000	 7.154000  
990.000000	 7.473000  
989.000000	 8.309999  
988.000000	 8.822000  
987.000000	 8.632000  
986.000000	 8.966000  
985.000000	 9.536000  
984.000000	 9.393000  
983.000000	 9.245000  
982.000000	 9.580000  
981.000000	 9.750000  
980.000000	 10.598000 
979.000000	 11.290000 
978.000000	 11.828000 
977.000000	 11.902000 
976.000000	 12.108000 
975.000000	 12.432000 
974.000000	 12.969000 
973.000000	 13.113000 
972.000000	 13.656000 
971.000000	 14.046000 
970.000000	 14.621000 
969.000000	 15.184000 
968.000000	 15.866000 
967.000000	 16.119000 
966.000000	 16.380000 
965.000000	 16.550000 
964.000000	 17.324000 
963.000000	 17.550000 
962.000000	 18.084000 
961.000000	 18.519000 
960.000000	 19.294000 
959.000000	 19.751000 
958.000000	 19.976000 
957.000000	 20.391000 
956.000000	 20.885000 
955.000000	 21.265000 
954.000000	 22.004000 
953.000000	 22.729000 
952.000000	 23.107000 
951.000000	 23.598000 
950.000000	 24.032000 
949.000000	 24.544000 
948.000000	 25.178000 
947.000000	 25.709000 
946.000000	 26.230000 
945.000000	 26.857000 
944.000000	 27.524000 
943.000000	 28.001000 
942.000000	 28.496000 
941.000000	 29.010000 
940.000000	 29.553000 
939.000000	 30.063000 
938.000000	 30.709000 
937.000000	 31.228000 
936.000000	 31.720000 
935.000000	 32.407000 
934.000000	 33.065000 
933.000000	 33.802000 
932.000000	 34.427000 
931.000000	 34.715000 
930.000000	 35.339000 
929.000000	 35.778000 
928.000000	 36.504000 
927.000000	 37.056000 
926.000000	 37.634000 
925.000000	 38.212000 
924.000000	 38.800000 
923.000000	 39.307000 
922.000000	 39.941000 
921.000000	 40.588000 
920.000000	 41.232000 
919.000000	 41.763000 
918.000000	 42.404000 
917.000000	 43.112000 
916.000000	 43.900000 
915.000000	 44.489000 
914.000000	 44.885000 
913.000000	 45.617999 
912.000000	 46.151000 
911.000000	 47.102000 
910.000000	 47.970000 
909.000000	 48.736000 
908.000000	 48.670000 
907.000000	 48.771000 
906.000000	 49.768000 
905.000000	 50.183000 
904.000000	 51.364000 
903.000000	 51.783000 
902.000000	 52.401000 
901.000000	 53.134000 
900.000000	 53.758000 
899.000000	 54.264999 
898.000000	 55.100000 
897.000000	 55.764000 
896.000000	 56.485000 
895.000000	 56.901999 
894.000000	 57.389000 
893.000000	 57.874000 
892.000000	 58.292000 
891.000000	 58.876000 
890.000000	 59.567000 
889.000000	 60.319999 
888.000000	 60.936000 
887.000000	 60.999000 
886.000000	 61.375000 
885.000000	 62.369000 
884.000000	 63.449000 
883.000000	 63.295000 
882.000000	 63.837000 
881.000000	 64.431000 
880.000000	 66.122000 
879.000000	 66.053000 
878.000000	 66.313000 
877.000000	 66.887000 
876.000000	 67.444999 
875.000000	 67.964000 
874.000000	 68.361999 
873.000000	 69.420999 
872.000000	 70.894000 
871.000000	 70.984000 
870.000000	 71.491000 
869.000000	 71.272000 
868.000000	 71.516000 
867.000000	 72.755000 
866.000000	 73.563000 
865.000000	 73.668000 
864.000000	 74.155000 
863.000000	 75.029000 
862.000000	 75.221000 
861.000000	 75.812000 
860.000000	 76.712999 
859.000000	 77.197000 
858.000000	 77.556000 
857.000000	 77.795999 
856.000000	 78.420999 
855.000000	 78.763000 
854.000000	 79.251000 
853.000000	 79.871000 
852.000000	 80.226000 
851.000000	 80.328000 
850.000000	 81.074000 
849.000000	 81.713000 
848.000000	 81.911000 
847.000000	 82.711000 
846.000000	 83.468000 
845.000000	 83.514000 
844.000000	 83.824000 
843.000000	 83.989999 
842.000000	 84.672000 
841.000000	 85.190000 
840.000000	 85.327000 
839.000000	 86.204000 
838.000000	 85.940000 
837.000000	 86.079000 
836.000000	 86.756000 
835.000000	 87.367999 
834.000000	 87.907000 
833.000000	 88.461999 
832.000000	 89.021000 
831.000000	 88.855999 
830.000000	 89.158000 
829.000000	 89.061000 
828.000000	 89.653000 
827.000000	 89.786000 
826.000000	 89.925000 
825.000000	 90.185999 
824.000000	 90.278000 
823.000000	 91.572000 
822.000000	 91.840000 
821.000000	 91.918000 
820.000000	 92.152999 
819.000000	 91.875000 
818.000000	 92.087000 
817.000000	 92.884000 
816.000000	 93.122000 
815.000000	 93.084999 
814.000000	 93.127000 
813.000000	 93.355999 
812.000000	 93.506000 
811.000000	 93.952000 
810.000000	 94.160000 
809.000000	 94.305000 
808.000000	 94.346000 
807.000000	 94.521000 
806.000000	 94.819000 
805.000000	 94.969000 
804.000000	 95.244000 
803.000000	 95.121000 
802.000000	 95.162000 
801.000000	 95.389000 
800.000000	 96.056000 
799.000000	 96.214999 
798.000000	 95.910000 
797.000000	 96.038000 
796.000000	 96.272000 
795.000000	 96.209000 
794.000000	 95.586000 
793.000000	 95.733000 
792.000000	 95.608999 
791.000000	 96.045999 
790.000000	 96.191999 
789.000000	 96.226999 
788.000000	 96.258000 
787.000000	 96.216000 
786.000000	 96.090000 
785.000000	 95.823000 
784.000000	 96.160000 
783.000000	 96.366000 
782.000000	 96.067000 
781.000000	 95.860000 
780.000000	 95.770000 
779.000000	 95.794000 
778.000000	 95.810000 
777.000000	 95.852999 
776.000000	 95.556000 
775.000000	 95.370000 
774.000000	 95.369000 
773.000000	 95.229000 
772.000000	 94.929000 
771.000000	 94.654000 
770.000000	 94.782000 
769.000000	 94.726000 
768.000000	 94.120000 
767.000000	 93.823000 
766.000000	 93.486999 
765.000000	 93.786999 
764.000000	 93.777000 
763.000000	 93.024000 
762.000000	 92.959999 
761.000000	 92.694000 
760.000000	 92.210000 
759.000000	 92.002000 
758.000000	 91.563000 
757.000000	 91.392000 
756.000000	 91.297000 
755.000000	 91.006000 
754.000000	 90.518000 
753.000000	 90.081999 
752.000000	 89.941999 
751.000000	 89.761000 
750.000000	 89.191000 
749.000000	 88.739999 
748.000000	 87.971000 
747.000000	 87.611999 
746.000000	 87.217999 
745.000000	 86.826000 
744.000000	 86.521000 
743.000000	 86.093000 
742.000000	 85.587000 
741.000000	 85.125000 
740.000000	 84.507000 
739.000000	 84.185000 
738.000000	 83.476000 
737.000000	 82.834000 
736.000000	 82.104999 
735.000000	 81.655000 
734.000000	 81.021000 
733.000000	 80.339000 
732.000000	 79.844000 
731.000000	 79.271999 
730.000000	 78.602000 
729.000000	 78.000000 
728.000000	 77.236999 
727.000000	 76.634999 
726.000000	 75.951000 
725.000000	 75.197999 
724.000000	 74.312000 
723.000000	 73.768999 
722.000000	 72.940000 
721.000000	 72.090000 
720.000000	 71.336000 
719.000000	 70.540000 
718.000000	 69.736000 
717.000000	 68.913000 
716.000000	 68.161000 
715.000000	 67.229000 
714.000000	 66.337000 
713.000000	 65.480999 
712.000000	 64.575999 
711.000000	 63.730000 
710.000000	 62.857000 
709.000000	 61.856999 
708.000000	 61.013000 
707.000000	 60.236000 
706.000000	 59.329000 
705.000000	 58.245000 
704.000000	 57.334000 
703.000000	 56.094000 
702.000000	 55.087000 
701.000000	 54.287000 
700.000000	 53.352000 
699.000000	 52.354000 
698.000000	 51.242000 
697.000000	 50.120000 
696.000000	 49.144000 
695.000000	 47.987000 
694.000000	 46.927000 
693.000000	 45.969000 
692.000000	 44.991000 
691.000000	 43.812000 
690.000000	 42.710000 
689.000000	 41.655000 
688.000000	 40.714000 
687.000000	 39.553000 
686.000000	 38.461000 
685.000000	 37.349000 
684.000000	 36.270000 
683.000000	 35.322000 
682.000000	 34.246000 
681.000000	 33.161000 
680.000000	 31.989000 
679.000000	 30.915000 
678.000000	 29.809000 
677.000000	 28.657000 
676.000000	 27.552000 
675.000000	 26.509000 
674.000000	 25.601000 
673.000000	 24.544000 
672.000000	 23.549000 
671.000000	 22.598000 
670.000000	 21.488000 
669.000000	 20.398000 
668.000000	 19.427000 
667.000000	 18.449000 
666.000000	 17.417000 
665.000000	 16.403000 
664.000000	 15.499000 
663.000000	 14.713000 
662.000000	 13.843000 
661.000000	 13.017000 
660.000000	 12.258000 
659.000000	 11.246000 
658.000000	 10.535000 
657.000000	 9.747999  
656.000000	 8.850000  
655.000000	 8.142000  
654.000000	 7.657000  
653.000000	 7.062000  
652.000000	 6.268999  
651.000000	 5.847000  
650.000000	 5.373000  
649.000000	 4.760000  
648.000000	 4.226000  
647.000000	 3.708000  
646.000000	 3.243000  
645.000000	 2.902000  
644.000000	 2.552000  
643.000000	 2.315000  
642.000000	 2.015000  
641.000000	 1.712000  
640.000000	 1.479000  
639.000000	 1.353000  
638.000000	 1.308000  
637.000000	 1.104000  
636.000000	 1.153000  
635.000000	 1.347000  
634.000000	 1.372000  
633.000000	 1.501000  
632.000000	 1.596000  
631.000000	 1.713000  
630.000000	 1.992000  
629.000000	 2.215000  
628.000000	 2.489000  
627.000000	 2.917000  
626.000000	 3.438000  
625.000000	 3.805000  
624.000000	 4.211000  
623.000000	 4.753000  
622.000000	 5.190000  
621.000000	 5.697000  
620.000000	 6.528000  
619.000000	 7.070000  
618.000000	 7.766000  
617.000000	 8.566000  
616.000000	 9.244000  
615.000000	 10.114000 
614.000000	 10.832000 
613.000000	 11.692000 
612.000000	 12.465000 
611.000000	 13.312000 
610.000000	 14.190000 
609.000000	 15.211000 
608.000000	 16.203000 
607.000000	 17.153000 
606.000000	 18.167000 
605.000000	 19.144000 
604.000000	 20.106000 
603.000000	 21.201000 
602.000000	 22.284000 
601.000000	 23.375000 
600.000000	 24.446000 
599.000000	 25.419000 
598.000000	 26.567000 
597.000000	 27.710000 
596.000000	 28.732000 
595.000000	 29.842000 
594.000000	 30.925000 
593.000000	 32.040000 
592.000000	 33.243000 
591.000000	 34.335000 
590.000000	 35.370000 
589.000000	 36.518000 
588.000000	 37.641000 
587.000000	 38.629000 
586.000000	 39.741000 
585.000000	 40.851000 
584.000000	 41.867000 
583.000000	 43.020000 
582.000000	 44.118000 
581.000000	 45.138000 
580.000000	 46.151000 
579.000000	 47.135000 
578.000000	 48.107000 
577.000000	 49.087000 
576.000000	 50.026000 
575.000000	 50.877000 
574.000000	 51.854000 
573.000000	 52.715999 
572.000000	 53.444000 
571.000000	 54.449000 
570.000000	 55.267000 
569.000000	 56.042000 
568.000000	 56.798000 
567.000000	 57.467000 
566.000000	 58.247000 
565.000000	 58.997000 
564.000000	 59.648999 
563.000000	 60.346999 
562.000000	 60.899000 
561.000000	 61.447000 
560.000000	 62.044999 
559.000000	 62.553000 
558.000000	 63.009000 
557.000000	 63.523000 
556.000000	 64.023000 
555.000000	 64.385000 
554.000000	 64.688999 
553.000000	 65.078000 
552.000000	 65.520000 
551.000000	 65.750000 
550.000000	 66.015999 
549.000000	 66.281000 
548.000000	 66.419000 
547.000000	 66.657000 
546.000000	 66.881000 
545.000000	 66.995000 
544.000000	 67.081000 
543.000000	 67.150000 
542.000000	 67.084999 
541.000000	 67.048000 
540.000000	 67.045999 
539.000000	 66.935999 
538.000000	 66.785000 
537.000000	 66.702000 
536.000000	 66.364000 
535.000000	 66.206000 
534.000000	 65.947999 
533.000000	 65.634000 
532.000000	 65.295999 
531.000000	 64.941000 
530.000000	 64.590999 
529.000000	 64.223000 
528.000000	 63.714000 
527.000000	 63.239999 
526.000000	 62.629000 
525.000000	 62.062000 
524.000000	 61.492999 
523.000000	 60.715000 
522.000000	 60.083000 
521.000000	 59.578000 
520.000000	 58.780000 
519.000000	 58.038000 
518.000000	 57.221999 
517.000000	 56.237000 
516.000000	 55.458000 
515.000000	 54.608000 
514.000000	 53.754000 
513.000000	 52.837999 
512.000000	 51.954000 
511.000000	 50.908000 
510.000000	 49.915000 
509.000000	 48.873000 
508.000000	 47.843000 
507.000000	 46.712000 
506.000000	 45.601000 
505.000000	 44.524000 
504.000000	 43.472000 
503.000000	 42.408000 
502.000000	 41.207000 
501.000000	 39.943000 
500.000000	 38.788000 
499.000000	 37.601000 
498.000000	 36.352000 
497.000000	 35.152000 
496.000000	 34.062000 
495.000000	 32.808000 
494.000000	 31.642000 
493.000000	 30.459000 
492.000000	 29.299000 
491.000000	 28.062000 
490.000000	 26.740000 
489.000000	 25.605000 
488.000000	 24.571000 
487.000000	 23.583000 
486.000000	 22.595000 
485.000000	 21.548000 
484.000000	 20.650000 
483.000000	 19.570000 
482.000000	 18.655000 
481.000000	 17.687000 
480.000000	 17.022000 
479.000000	 16.213000 
478.000000	 15.445000 
477.000000	 14.639000 
476.000000	 13.988000 
475.000000	 13.447000 
474.000000	 12.913000 
473.000000	 12.455000 
472.000000	 11.847000 
471.000000	 11.354000 
470.000000	 11.197000 
469.000000	 11.061000 
468.000000	 10.670000 
467.000000	 10.582000 
466.000000	 10.465000 
465.000000	 10.296000 
464.000000	 10.223000 
463.000000	 10.320000 
462.000000	 10.425000 
461.000000	 10.624000 
460.000000	 10.897000 
459.000000	 11.271000 
458.000000	 11.673000 
457.000000	 12.035000 
456.000000	 12.264000 
455.000000	 12.569000 
454.000000	 13.140000 
453.000000	 13.714000 
452.000000	 14.322000 
451.000000	 14.961000 
450.000000	 15.671000 
449.000000	 16.291000 
448.000000	 17.085000 
447.000000	 17.492000 
446.000000	 18.270000 
445.000000	 19.048000 
444.000000	 19.580000 
443.000000	 20.391000 
442.000000	 21.309000 
441.000000	 22.071000 
440.000000	 22.756000 
439.000000	 23.325000 
438.000000	 24.064000 
437.000000	 24.965000 
436.000000	 25.313000 
435.000000	 26.228000 
434.000000	 26.990000 
433.000000	 27.622000 
432.000000	 28.415000 
431.000000	 28.883000 
430.000000	 29.393000 
429.000000	 29.880000 
428.000000	 30.403000 
427.000000	 30.966000 
426.000000	 31.613000 
425.000000	 32.008000 
424.000000	 32.468000 
423.000000	 32.983000 
422.000000	 33.189000 
421.000000	 33.260000 
420.000000	 33.519000 
419.000000	 33.829000 
418.000000	 34.071000 
417.000000	 34.126000 
416.000000	 34.407000 
415.000000	 34.655000 
414.000000	 34.684000 
413.000000	 34.588000 
412.000000	 34.430000 
411.000000	 34.486000 
410.000000	 34.278000 
409.000000	 34.043000 
408.000000	 34.132000 
407.000000	 34.090000 
406.000000	 33.613000 
405.000000	 33.359000 
404.000000	 32.879000 
403.000000	 32.096999 
402.000000	 32.004000 
401.000000	 31.682000 
400.000000	 30.972000 
399.000000	 30.608000 
398.000000	 30.237000 
397.000000	 30.243000 
396.000000	 29.678000 
395.000000	 28.807000 
394.000000	 28.224000 
393.000000	 27.352000 
392.000000	 27.035000 
391.000000	 26.521000 
390.000000	 26.109000 
389.000000	 25.139000 
388.000000	 24.572000 
387.000000	 24.468000 
386.000000	 23.349000 
385.000000	 22.581000 
384.000000	 21.819000 
383.000000	 21.034000 
382.000000	 20.456000 
381.000000	 20.252000 
380.000000	 19.803000 
379.000000	 18.921000 
378.000000	 18.267000 
377.000000	 17.769000 
376.000000	 17.372000 
375.000000	 16.955000 
374.000000	 16.393000 
373.000000	 16.159000 
372.000000	 16.026000 
371.000000	 15.653000 
370.000000	 15.408000 
369.000000	 14.925000 
368.000000	 14.847000 
367.000000	 14.755000 
366.000000	 14.703000 
365.000000	 14.947000 
364.000000	 15.051000 
363.000000	 15.050000 
362.000000	 15.201000 
361.000000	 15.509000 
360.000000	 15.631000 
359.000000	 15.546000 
358.000000	 15.436000 
357.000000	 15.844000 
356.000000	 16.383000 
355.000000	 17.180000 
354.000000	 17.321000 
353.000000	 17.759000 
352.000000	 17.390000 
351.000000	 18.238000 
350.000000	 18.185000 
349.000000	 18.016000 
348.000000	 19.056000 
347.000000	 19.067000 
346.000000	 19.384000 
345.000000	 19.131000 
344.000000	 19.876000 
343.000000	 19.969000 
342.000000	 19.882000 
341.000000	 19.871000 
340.000000	 20.110000 
339.000000	 20.462000 
338.000000	 20.868000 
337.000000	 21.261000 
336.000000	 22.071000 
335.000000	 21.726000 
334.000000	 21.166000 
333.000000	 21.052000 
332.000000	 21.213000 
331.000000	 21.006000 
330.000000	 20.772000 
329.000000	 21.140000 
328.000000	 21.514000 
327.000000	 21.271000 
326.000000	 20.873000 
325.000000	 20.805000 
324.000000	 20.636000 
323.000000	 20.740000 
322.000000	 20.743000 
321.000000	 20.361000 
320.000000	 19.951000 
319.000000	 19.960000 
318.000000	 19.890000 
317.000000	 19.897000 
316.000000	 19.497000 
315.000000	 19.563000 
314.000000	 19.515000 
313.000000	 19.003000 
312.000000	 18.842000 
311.000000	 18.799000 
310.000000	 18.756000 
309.000000	 18.797000 
308.000000	 18.513000 
307.000000	 18.186000 
306.000000	 18.526000 
305.000000	 18.029000 
304.000000	 17.609000 
303.000000	 17.195000 
302.000000	 17.113000 
301.000000	 17.053000 
300.000000	 17.518000 
299.000000	 16.947000 
298.000000	 16.816000 
297.000000	 16.494000 
296.000000	 16.339000 
295.000000	 16.025000 
294.000000	 15.893000 
293.000000	 15.717000 
292.000000	 15.538000 
291.000000	 15.561000 
290.000000	 15.384000 
289.000000	 15.230000 
288.000000	 15.191000 
287.000000	 15.273000 
286.000000	 15.191000 
285.000000	 15.077000 
284.000000	 14.980000 
283.000000	 15.046000 
282.000000	 15.090000 
281.000000	 15.085000 
280.000000	 15.133000 
279.000000	 14.940000 
278.000000	 14.801000 
277.000000	 14.693000 
276.000000	 14.652000 
275.000000	 14.843000 
274.000000	 15.054000 
273.000000	 14.994000 
272.000000	 15.109000 
271.000000	 15.200000 
270.000000	 15.123000 
269.000000	 14.843000 
268.000000	 14.953000 
267.000000	 14.949000 
266.000000	 14.934000 
265.000000	 15.383000 
264.000000	 15.248000 
263.000000	 15.319000 
262.000000	 15.247000 
261.000000	 15.399000 
260.000000	 15.223000 
259.000000	 15.152000 
258.000000	 15.212000 
257.000000	 15.403000 
256.000000	 15.679000 
255.000000	 15.701000 
254.000000	 15.736000 
253.000000	 15.570000 
252.000000	 15.556000 
251.000000	 15.998000 
250.000000	 16.084000 
249.000000	 16.137000 
248.000000	 16.353000 
247.000000	 16.428000 
246.000000	 16.413000 
245.000000	 16.466000 
244.000000	 16.513000 
243.000000	 16.545000 
242.000000	 16.355000 
241.000000	 16.626000 
240.000000	 16.457000 
239.000000	 16.671000 
238.000000	 16.955000 
237.000000	 17.081000 
236.000000	 17.119000 
235.000000	 17.374000 
234.000000	 17.104000 
233.000000	 16.907000 
232.000000	 16.724000 
231.000000	 16.509000 
230.000000	 16.661000 
229.000000	 16.851000 
228.000000	 17.243000 
227.000000	 16.828000 
226.000000	 16.300000 
225.000000	 15.967000 
224.000000	 15.647000 
223.000000	 16.707000 
222.000000	 16.800000 
221.000000	 15.863000 
220.000000	 16.493000 
219.000000	 16.960000 
218.000000	 17.235000 
217.000000	 16.850000 
216.000000	 15.209000 
215.000000	 17.091000 
214.000000	 16.883000 
213.000000	 16.264000 
212.000000	 16.203000 
211.000000	 15.771000 
210.000000	 15.805000 
209.000000	 17.968000 
208.000000	 18.011000 
207.000000	 15.752000 
206.000000	 16.883000 
205.000000	 17.013000 
204.000000	 17.394000 
203.000000	 20.067000 
202.000000	 19.629000 
201.000000	 19.338000 
200.000000	 20.883000 
199.000000	 19.501000 
198.000000	 20.523000 
197.000000	 11.884000 
196.000000	 6.622000  
195.000000	 19.579000 
194.000000	 24.531000 
193.000000	 33.864000 

