## SPECTRUM TYPE:
Spectroscopic

## DATE:
1/30/2012

## COMMENTS:

## NUMBER OF SPECTRUM:
5

## ELLIPSOMETRIC CONFIGURATION:
+90.00 øModulator
-45.00 øAnalyser

## UNIT:
eV


# SPECTRUM:
1

# START TIME:
14:22:20

# END TIME:
14:34:21

# THETA ANGLE:
0.00 ø

# INCIDENCE ANGLE:
55.00 ø

# ACCUMULATION NUMBER:
1

# ELLIPSOMETRIC CONFIGURATION:
+90.00 øModulator
-45.00 øAnalyser

# INTEGRATION TIME:
500 ms

# FIRST POINT:
0.6000 eV

# LAST POINT:
6.5000 eV

# INCREMENT:
0.0250 eV

# NUMBER OF POINTS:
237

# DATA:
eV Hv S0 Psi Delta Is Ic
0.6 3898.9 46.587 41.71 167.496 -0.21508 -0.96985 
0.625 3898.9 72.158 41.487 167.033 -0.2227 -0.96718 
0.65 3498.9 77.945 41.407 166.768 -0.2271 -0.9658 
0.675 3200.4 78.561 41.349 166.405 -0.23315 -0.9641 
0.7 2400.3 79.324 41.205 165.922 -0.24111 -0.96147 
0.725 1898.7 79.179 41.038 165.565 -0.24691 -0.95918 
0.75 1701.8 77.494 40.929 165.264 -0.2518 -0.95736 
0.775 1403.4 73.212 40.88 164.908 -0.25769 -0.95554 
0.8 901.7 67.751 40.819 164.589 -0.26292 -0.9538 
0.825 1200.2 69.208 40.573 164.257 -0.26808 -0.95102 
0.85 1200.2 68.968 40.542 163.896 -0.27402 -0.94915 
0.875 800.1 63.921 40.476 163.547 -0.27971 -0.94712 
0.9 997 77.253 40.259 163.188 -0.28528 -0.94418 
0.925 1098.6 74.266 40.363 162.889 -0.29037 -0.94325 
0.95 1098.6 66.611 40.281 162.556 -0.29571 -0.94109 
0.975 800.1 68.53 40.253 162.187 -0.30172 -0.93902 
1 1098.6 70.114 40.068 161.852 -0.30687 -0.93621 
1.025 1098.6 75.477 39.932 161.491 -0.3125 -0.93347 
1.05 698.5 70.942 39.751 161.099 -0.3185 -0.93024 
1.075 1098.6 77.04 39.895 160.857 -0.32273 -0.92975 
1.1 997 68.227 39.591 160.449 -0.3287 -0.9256 
1.125 997 71.089 39.579 160.103 -0.33426 -0.92352 
1.15 895.4 70.176 39.401 159.75 -0.33953 -0.92033 
1.175 895.4 75.788 39.209 159.4 -0.34467 -0.917 
1.2 895.4 60.228 39.418 159.132 -0.34948 -0.91672 
1.225 698.5 72.852 39.167 158.801 -0.35414 -0.91307 
1.25 438.2 62.963 39.139 158.431 -0.35995 -0.91058 
1.275 736.6 65.328 39.136 158.22 -0.3633 -0.90923 
1.3 736.6 72.132 39.07 157.893 -0.3683 -0.9067 
1.325 933.5 80.247 38.875 157.541 -0.37333 -0.90311 
1.35 533.4 65.216 38.677 157.263 -0.37712 -0.89992 
1.375 933.5 71.037 38.53 156.988 -0.381 -0.89704 
1.4 641.4 62.398 38.434 156.632 -0.38627 -0.89397 
1.425 1441.5 63.476 38.377 156.425 -0.38931 -0.89215 
1.45 2641.6 60.816 38.803 156.132 -0.3952 -0.89317 
1.475 664 72.117 38.128 155.73 -0.39927 -0.88551 
1.5 489 56.289 37.942 155.523 -0.40182 -0.88264 
1.525 600 73.99 37.959 155.28 -0.40561 -0.88107 
1.55 541 71.596 37.753 155.106 -0.40754 -0.87822 
1.575 580 65.113 37.575 154.782 -0.41184 -0.87447 
1.6 580 74.737 37.544 154.518 -0.41574 -0.87232 
1.625 530 67.816 37.426 154.277 -0.41894 -0.8696 
1.65 530 63.582 37.296 154.036 -0.42206 -0.86675 
1.675 530 76.362 37.328 153.762 -0.42635 -0.86499 
1.7 514 70.965 37.153 153.576 -0.42842 -0.86214 
1.725 502 69.596 37.031 153.306 -0.43195 -0.85908 
1.75 492 68.64 36.952 153.096 -0.43476 -0.85681 
1.775 483 70.197 36.809 152.841 -0.43794 -0.85362 
1.8 467 70.106 36.689 152.598 -0.441 -0.8507 
1.825 467 76.711 36.644 152.374 -0.44411 -0.84857 
1.85 454 69.581 36.496 152.198 -0.44602 -0.84588 
1.875 454 76.997 36.389 151.966 -0.44892 -0.8431 
1.9 440 69.839 36.35 151.771 -0.4516 -0.84121 
1.925 440 76.564 36.227 151.536 -0.45444 -0.83822 
1.95 429 70.43 36.129 151.361 -0.45648 -0.83591 
1.975 429 78.234 36.011 151.165 -0.45874 -0.83324 
2 418 70.14 35.972 150.98 -0.46122 -0.83139 
2.025 418 73.193 35.809 150.775 -0.46332 -0.82818 
2.05 418 72.861 35.768 150.571 -0.46606 -0.82613 
2.075 406 71.288 35.621 150.344 -0.46851 -0.82286 
2.1 406 75.6 35.578 150.146 -0.4711 -0.82081 
2.125 399 69.971 35.501 149.919 -0.47391 -0.81818 
2.15 399 73.155 35.378 149.734 -0.47585 -0.81543 
2.175 399 76.031 35.365 149.543 -0.4785 -0.81372 
2.2 399 79.205 35.255 149.305 -0.48122 -0.81062 
2.225 390 69.51 35.131 149.086 -0.48356 -0.80753 
2.25 390 72.367 34.965 148.874 -0.48554 -0.80405 
2.275 390 74.315 34.924 148.617 -0.48887 -0.80144 
2.3 390 76.438 34.774 148.396 -0.49101 -0.798 
2.325 383 68.96 34.618 148.186 -0.49292 -0.79458 
2.35 383 70.25 34.548 147.942 -0.49584 -0.79172 
2.375 383 72.066 34.358 147.753 -0.49718 -0.78807 
2.4 383 74.011 34.216 147.553 -0.49896 -0.78479 
2.425 383 78.06 33.953 147.449 -0.49854 -0.78102 
2.45 371 70.698 33.734 147.362 -0.49815 -0.77782 
2.475 371 70.99 33.422 147.438 -0.49486 -0.77491 
2.5 408 66.835 33.206 147.568 -0.4915 -0.77351 
2.525 408 67.914 33.076 147.727 -0.48836 -0.77332 
2.55 408 67.404 32.933 147.92 -0.48468 -0.77325 
2.575 408 72.218 32.894 148.056 -0.48255 -0.77393 
2.6 408 67.714 32.842 148.288 -0.47902 -0.77523 
2.625 399 69.191 32.824 148.359 -0.47793 -0.7756 
2.65 399 72.462 32.792 148.381 -0.47738 -0.77541 
2.675 399 63.765 32.787 148.44 -0.47655 -0.77583 
2.7 407 68.188 32.793 148.457 -0.47636 -0.77603 
2.725 407 64.342 32.751 148.483 -0.47569 -0.77574 
2.75 407 67.792 32.76 148.474 -0.47589 -0.77578 
2.775 407 59.558 32.727 148.425 -0.4763 -0.77496 
2.8 407 58.799 32.698 148.359 -0.47696 -0.77406 
2.825 416 69.195 32.689 148.32 -0.47742 -0.77361 
2.85 416 66.002 32.677 148.256 -0.4782 -0.77293 
2.875 416 64.86 32.641 148.194 -0.47876 -0.77197 
2.9 416 63.89 32.625 148.136 -0.47941 -0.77129 
2.925 416 63.157 32.582 148.007 -0.48082 -0.76967 
2.95 416 63.183 32.517 147.996 -0.48045 -0.76877 
2.975 416 60.147 32.503 147.911 -0.48149 -0.76788 
3 425 68.362 32.449 147.87 -0.48161 -0.76686 
3.025 425 66.059 32.4 147.819 -0.48191 -0.76582 
3.05 425 63.475 32.335 147.785 -0.48185 -0.76471 
3.075 425 61.217 32.299 147.693 -0.48279 -0.76349 
3.1 425 78.341 32.29 147.694 -0.4827 -0.76337 
3.125 425 76.083 32.243 147.674 -0.48259 -0.76261 
3.15 425 72.45 32.159 147.666 -0.48202 -0.76147 
3.175 425 67.91 32.058 147.634 -0.48162 -0.75991 
3.2 425 64.671 32.006 147.624 -0.48132 -0.75915 
3.225 425 61.971 31.925 147.717 -0.47943 -0.75889 
3.25 425 58.785 31.859 147.766 -0.47825 -0.75843 
3.275 438 70.065 31.798 147.931 -0.47555 -0.759 
3.3 438 64.933 31.72 148.104 -0.47262 -0.7594 
3.325 448 69.463 31.672 148.432 -0.46787 -0.76147 
3.35 448 65.687 31.672 148.783 -0.46319 -0.76432 
3.375 448 65.487 31.683 149.151 -0.45836 -0.76743 
3.4 448 65.224 31.793 149.45 -0.45522 -0.77129 
3.425 448 63.983 31.902 149.686 -0.4529 -0.77461 
3.45 448 62.008 32.027 149.926 -0.45061 -0.77816 
3.475 457 69.213 32.218 150.006 -0.45097 -0.7813 
3.5 457 66.003 32.325 150.116 -0.45027 -0.78355 
3.525 457 63.271 32.484 150.219 -0.45004 -0.7864 
3.55 457 61.226 32.571 150.238 -0.45041 -0.78767 
3.575 467 69.417 32.805 150.319 -0.45098 -0.79126 
3.6 467 67.569 32.926 150.361 -0.45125 -0.7931 
3.625 467 66.097 33.152 150.287 -0.45387 -0.7953 
3.65 467 64.793 33.286 150.32 -0.45433 -0.79718 
3.675 467 63.897 33.527 150.25 -0.45694 -0.7995 
3.7 467 63.003 33.74 150.145 -0.45985 -0.80115 
3.725 467 62.602 33.954 149.962 -0.46382 -0.80213 
3.75 467 61.501 34.165 149.803 -0.46743 -0.80321 
3.775 467 59.914 34.392 149.57 -0.47215 -0.80381 
3.8 478 68.623 34.645 149.334 -0.47708 -0.80457 
3.825 478 65.683 34.79 149.019 -0.48241 -0.80346 
3.85 478 61.802 35.003 148.705 -0.48814 -0.803 
3.875 488 66.993 35.284 148.38 -0.49442 -0.80304 
3.9 488 62.502 35.48 147.946 -0.50168 -0.80118 
3.925 498 68.047 35.614 147.474 -0.50909 -0.7983 
3.95 498 64.61 35.949 146.988 -0.51785 -0.79706 
3.975 498 61.388 35.934 146.429 -0.52551 -0.79182 
4 509 68.688 36.27 145.965 -0.53391 -0.79051 
4.025 509 65.898 36.263 145.358 -0.54222 -0.78475 
4.05 509 63.469 36.505 144.821 -0.55099 -0.78169 
4.075 509 60.882 36.516 144.185 -0.55969 -0.77562 
4.1 522 70.315 36.741 143.605 -0.56886 -0.77172 
4.125 522 67.81 36.745 142.82 -0.5794 -0.76389 
4.15 522 65.443 36.918 142.19 -0.58881 -0.75882 
4.175 522 64.846 36.893 141.504 -0.5977 -0.75152 
4.2 522 63.551 37.043 140.656 -0.60967 -0.74372 
4.225 522 63.487 36.977 139.898 -0.61906 -0.7351 
4.25 522 62.673 37.02 139.056 -0.63006 -0.72623 
4.275 522 61.653 36.92 138.24 -0.63969 -0.71647 
4.3 561 67.215 36.86 137.125 -0.65312 -0.70346 
4.325 561 73.02 36.71 136.313 -0.662 -0.69306 
4.35 561 78.665 36.637 135.717 -0.66866 -0.68561 
4.375 548 69.867 36.441 135.048 -0.67522 -0.67634 
4.4 548 74.09 36.28 134.729 -0.67779 -0.67141 
4.425 548 76.878 36.123 134.283 -0.6818 -0.66495 
4.45 548 79.083 35.893 133.798 -0.68562 -0.65744 
4.475 537 70.013 35.813 133.408 -0.68944 -0.65216 
4.5 537 70.887 35.614 133.183 -0.69039 -0.64792 
4.525 537 72.189 35.534 132.774 -0.69433 -0.64238 
4.55 537 72.398 35.445 132.367 -0.69813 -0.63675 
4.575 537 72.174 35.267 132.044 -0.70019 -0.63142 
4.6 537 70.975 35.137 131.704 -0.70277 -0.62624 
4.625 537 69.876 35.057 131.504 -0.70425 -0.62316 
4.65 537 68.678 35.013 131.16 -0.70759 -0.61858 
4.675 537 67.711 34.938 130.785 -0.71094 -0.61334 
4.7 537 65.181 34.843 130.464 -0.71349 -0.60862 
4.725 537 64.524 34.691 130.174 -0.71515 -0.60379 
4.75 537 62.455 34.464 129.829 -0.71661 -0.59767 
4.775 537 60.441 34.44 129.576 -0.71901 -0.59431 
4.8 550 70.486 34.347 129.155 -0.72244 -0.58826 
4.825 550 67.521 34.236 128.81 -0.72487 -0.58301 
4.85 550 65.474 34.056 128.7 -0.72417 -0.58018 
4.875 550 63.038 34.053 128.204 -0.72913 -0.57386 
4.9 550 59.537 33.951 127.981 -0.73031 -0.57019 
4.925 564 70.143 33.842 127.669 -0.73227 -0.56532 
4.95 564 67.744 33.722 127.407 -0.73357 -0.56101 
4.975 564 64.988 33.638 127.061 -0.73605 -0.55588 
5 564 63 33.561 126.757 -0.73816 -0.55135 
5.025 575 69.075 33.42 126.611 -0.73801 -0.54832 
5.05 575 66.155 33.335 126.284 -0.7402 -0.5434 
5.075 575 63.469 33.204 126.021 -0.7412 -0.53892 
5.1 575 59.108 33.025 125.834 -0.74091 -0.53503 
5.125 592 69.63 32.989 125.517 -0.74345 -0.53063 
5.15 592 65.665 32.923 125.294 -0.74474 -0.52719 
5.175 592 61.292 32.818 124.935 -0.7468 -0.52164 
5.2 604 66.753 32.646 124.658 -0.74726 -0.51662 
5.225 604 63.277 32.547 124.518 -0.74732 -0.51397 
5.25 616 68.574 32.564 124.309 -0.7494 -0.51138 
5.275 616 64.492 32.362 124.042 -0.7493 -0.5062 
5.3 628 69.779 32.293 123.648 -0.7519 -0.50047 
5.325 628 65.95 32.125 123.569 -0.75048 -0.49804 
5.35 628 61.61 32.001 123.238 -0.75176 -0.49265 
5.375 643 68.753 31.863 123.12 -0.751 -0.48995 
5.4 643 64.747 31.776 122.99 -0.75098 -0.48751 
5.425 643 60.483 31.645 122.733 -0.75144 -0.48303 
5.45 658 67.431 31.477 122.375 -0.7522 -0.47691 
5.475 658 62.52 31.432 122.561 -0.75005 -0.47895 
5.5 672 68.433 31.332 122.103 -0.7525 -0.4721 
5.525 672 63.523 31.219 122.018 -0.75165 -0.47001 
5.55 685 68.427 31.154 121.692 -0.75342 -0.46518 
5.575 685 62.96 30.816 121.575 -0.74965 -0.46074 
5.6 700 67.777 30.858 121.523 -0.75066 -0.46042 
5.625 700 62.39 30.713 121.22 -0.75102 -0.45519 
5.65 718 69.357 30.646 121.073 -0.75122 -0.45268 
5.675 718 63.66 30.538 120.998 -0.75027 -0.45077 
5.7 736 70.175 30.381 121.04 -0.74765 -0.44994 
5.725 736 64.312 30.194 120.734 -0.74729 -0.4443 
5.75 736 58.733 30.257 120.71 -0.7484 -0.44454 
5.775 760 67.048 30.005 120.54 -0.74597 -0.44011 
5.8 778 71.435 29.786 120.354 -0.74407 -0.43574 
5.825 778 64.998 29.606 119.724 -0.74604 -0.42595 
5.85 780 59.747 29.696 120.416 -0.74222 -0.43573 
5.875 780 53.038 29.163 119.913 -0.73767 -0.4244 
5.9 780 47.33 29.493 120.109 -0.74139 -0.42993 
5.925 780 41.472 29.28 120 -0.73888 -0.42659 
5.95 780 37.303 29.107 120.126 -0.7352 -0.42663 
5.975 780 32.979 28.936 119.646 -0.73601 -0.41889 
6 780 29.899 29.139 119.679 -0.73902 -0.42117 
6.025 780 26.455 29.099 119.576 -0.73914 -0.41948 
6.05 780 23.697 28.702 119.91 -0.73029 -0.4201 
6.075 780 21.42 28.631 119.237 -0.73399 -0.41084 
6.1 780 19.275 28.59 120.003 -0.72777 -0.42023 
6.125 780 17.184 28.526 120.114 -0.72589 -0.42102 
6.15 780 15.541 28.842 120.035 -0.73163 -0.42299 
6.175 780 14.084 28.578 119.441 -0.73165 -0.41295 
6.2 780 12.784 28.364 120.039 -0.72378 -0.41853 
6.225 780 11.725 28.732 121.525 -0.71863 -0.422028 
6.25 780 10.627 28.767 119.908 -0.73135 -0.42067 
6.275 780 9.556 28.189 119.629 -0.72382 -0.41168 
6.3 780 8.705 28.77 120.195 -0.72928 -0.42437 
6.325 780 7.941 28.895 120.048 -0.7324 -0.42366 
6.35 780 7.114 27.581 120.474 -0.734493 -0.41624 
6.375 780 6.306 29.154 120.37 -0.73412 -0.43019 
6.4 780 5.644 28.636 119.823 -0.72984 -0.41837 
6.425 780 5.057 29.094 118.821 -0.74453 -0.40966 
6.45 780 4.477 29.596 119.879 -0.74472 -0.42788 
6.475 780 3.962 29.654 121.325 -0.73458 -0.44707 
6.5 780 3.534 29.506 120.318 -0.74003 -0.43275 

# MINIMA:
0.600 371.0 3.534 27.581 118.821 -0.75342 -0.96985

# MAXIMA:
6.500 3898.9 80.247 41.710 167.496 -0.21508 -0.40966

# PEAKS:

# END SPECTRUM


# SPECTRUM:
2

# START TIME:
14:35:12

# END TIME:
14:45:54

# THETA ANGLE:
0.00 ø

# INCIDENCE ANGLE:
60.00 ø

# ACCUMULATION NUMBER:
1

# ELLIPSOMETRIC CONFIGURATION:
+90.00 øModulator
-45.00 øAnalyser

# INTEGRATION TIME:
500 ms

# FIRST POINT:
0.6000 eV

# LAST POINT:
6.5000 eV

# INCREMENT:
0.0250 eV

# NUMBER OF POINTS:
237

# DATA:
eV Hv S0 Psi Delta Is Ic
0.6 3898.9 57.623 40.642 163.993 -0.27257 -0.95013 
0.625 3397.3 78.923 40.497 163.443 -0.28145 -0.94672 
0.65 2800.4 78.596 40.384 163.127 -0.2865 -0.94456 
0.675 2603.5 78.634 40.243 162.619 -0.29462 -0.94121 
0.7 1905 77.146 40.089 162.002 -0.30446 -0.93712 
0.725 1606.6 78.972 39.906 161.569 -0.31117 -0.93375 
0.75 1505 78.249 39.871 161.157 -0.31781 -0.93128 
0.775 1308.1 75.295 39.694 160.696 -0.32492 -0.92764 
0.8 812.8 63.255 39.644 160.267 -0.33175 -0.92488 
0.825 1111.3 69.475 39.483 159.891 -0.33744 -0.92168 
0.85 1111.3 68.969 39.39 159.456 -0.34422 -0.91851 
0.875 812.8 76.793 39.23 158.959 -0.35178 -0.91445 
0.9 914.4 74.161 39.142 158.554 -0.35801 -0.91137 
0.925 1016 70.398 39.012 158.099 -0.36488 -0.90764 
0.95 1016 62.861 39.042 157.735 -0.37073 -0.9055 
0.975 717.6 61.038 38.806 157.164 -0.37906 -0.90016 
1 1016 65.759 38.83 156.809 -0.3847 -0.89796 
1.025 1016 70.293 38.602 156.332 -0.39147 -0.89314 
1.05 622.3 60.365 38.486 155.853 -0.39854 -0.88901 
1.075 1022.4 72.189 38.475 155.526 -0.40358 -0.88664 
1.1 920.8 63.875 38.33 155.019 -0.41092 -0.88199 
1.125 920.8 65.867 38.275 154.602 -0.41714 -0.87857 
1.15 825.5 62.995 38.109 154.2 -0.42269 -0.8744 
1.175 825.5 67.953 38.004 153.78 -0.42871 -0.87048 
1.2 927.1 70.592 37.961 153.35 -0.43506 -0.86692 
1.225 628.7 62.564 37.838 152.957 -0.44052 -0.86298 
1.25 431.8 64.248 37.744 152.507 -0.44691 -0.85877 
1.275 730.3 69.596 37.546 152.148 -0.45146 -0.85439 
1.3 730.3 77.226 37.381 151.66 -0.45801 -0.8492 
1.325 831.9 65.746 37.222 151.332 -0.46217 -0.84527 
1.35 533.4 70.03 37.102 150.953 -0.4672 -0.84121 
1.375 933.5 77.624 37.042 150.574 -0.47246 -0.8376 
1.4 635 65.885 37.089 150.256 -0.47732 -0.83535 
1.425 1435.1 70.551 36.807 149.836 -0.48206 -0.82947 
1.45 2336.8 60.918 37.32 149.516 -0.48918 -0.83099 
1.475 780 0 0 0 -0.492492 -0.824798 
1.5 485 58.546 36.367 148.784 -0.49492 -0.81668 
1.525 593 75.562 36.242 148.421 -0.49939 -0.81242 
1.55 532 70.985 36.101 148.098 -0.50318 -0.80832 
1.575 572 66.208 35.983 147.759 -0.50727 -0.80427 
1.6 572 75.97 35.92 147.395 -0.512 -0.80044 
1.625 525 70.546 35.707 147.072 -0.51524 -0.79558 
1.65 525 65.569 35.663 146.81 -0.5186 -0.7928 
1.675 516 69.499 35.487 146.427 -0.52278 -0.78767 
1.7 506 69.965 35.416 146.113 -0.52664 -0.78411 
1.725 495 69.976 35.316 145.781 -0.53054 -0.7801 
1.75 495 79.633 35.203 145.495 -0.53368 -0.77635 
1.775 477 70.588 35.044 145.181 -0.53685 -0.77188 
1.8 462 71.402 34.926 144.885 -0.54001 -0.76794 
1.825 462 77.82 34.791 144.597 -0.54293 -0.76389 
1.85 449 70.918 34.653 144.369 -0.54498 -0.76034 
1.875 449 77.602 34.576 144.023 -0.549 -0.75627 
1.9 434 69.017 34.495 143.684 -0.55286 -0.75219 
1.925 434 76.022 34.347 143.442 -0.55492 -0.74835 
1.95 423 69.533 34.187 143.182 -0.5571 -0.74419 
1.975 423 76.903 34.12 142.926 -0.5599 -0.74101 
2 413 70.091 34.023 142.623 -0.56303 -0.73703 
2.025 413 73.131 33.911 142.403 -0.56496 -0.7337 
2.05 413 72.557 33.807 142.091 -0.56811 -0.72953 
2.075 400 69.303 33.731 141.785 -0.57137 -0.72568 
2.1 400 73.998 33.583 141.506 -0.57365 -0.72133 
2.125 400 77.445 33.494 141.206 -0.57666 -0.71738 
2.15 392 69.745 33.325 140.973 -0.57812 -0.71322 
2.175 392 72.607 33.309 140.693 -0.58146 -0.71022 
2.2 392 75.061 33.171 140.406 -0.58377 -0.70582 
2.225 392 78.141 33.075 140.075 -0.58699 -0.70139 
2.25 384 69.605 32.994 139.744 -0.59028 -0.69712 
2.275 384 71.634 32.854 139.425 -0.59286 -0.6923 
2.3 384 72.797 32.79 139.064 -0.5966 -0.68786 
2.325 384 74.789 32.548 138.793 -0.59753 -0.68238 
2.35 384 76.807 32.41 138.49 -0.59978 -0.67768 
2.375 384 78.222 32.19 138.206 -0.60094 -0.67225 
2.4 384 80.024 31.991 137.921 -0.60224 -0.667 
2.425 375 71.296 31.724 137.696 -0.60207 -0.66159 
2.45 367 69.799 31.457 137.597 -0.60039 -0.65743 
2.475 367 69.672 31.252 137.5 -0.59928 -0.654 
2.5 397 67.263 30.861 137.642 -0.59336 -0.65077 
2.525 397 67.749 30.684 137.785 -0.58975 -0.65006 
2.55 397 67.025 30.526 138.027 -0.58523 -0.65057 
2.575 397 71.646 30.463 138.162 -0.58297 -0.65115 
2.6 397 67.336 30.366 138.375 -0.57946 -0.65208 
2.625 389 69.375 30.352 138.47 -0.57822 -0.65287 
2.65 389 72.135 30.331 138.502 -0.57761 -0.65293 
2.675 389 63.422 30.283 138.533 -0.57671 -0.65261 
2.7 397 68.108 30.302 138.526 -0.57701 -0.6528 
2.725 397 64.235 30.256 138.603 -0.57561 -0.65298 
2.75 397 67.303 30.275 138.54 -0.57655 -0.65258 
2.775 397 59.133 30.217 138.484 -0.57652 -0.65127 
2.8 405 67.18 30.212 138.378 -0.57766 -0.65014 
2.825 405 66.942 30.153 138.3 -0.57788 -0.6486 
2.85 405 63.776 30.17 138.201 -0.57919 -0.64781 
2.875 405 62.295 30.119 138.116 -0.57956 -0.64629 
2.9 405 61.179 30.081 137.972 -0.58074 -0.64434 
2.925 405 60.321 30.043 137.891 -0.58121 -0.64303 
2.95 405 60.632 29.986 137.774 -0.58185 -0.64111 
2.975 415 68.336 29.979 137.687 -0.58274 -0.64014 
3 415 66.875 29.908 137.584 -0.58305 -0.63817 
3.025 415 64.159 29.843 137.477 -0.58347 -0.63624 
3.05 415 61.724 29.773 137.375 -0.58376 -0.63428 
3.075 415 59.381 29.73 137.27 -0.58442 -0.63265 
3.1 415 75.283 29.675 137.191 -0.58462 -0.63112 
3.125 415 73.402 29.596 137.109 -0.58456 -0.62927 
3.15 415 69.599 29.515 137.03 -0.58444 -0.62739 
3.175 415 65.759 29.439 136.98 -0.58406 -0.62588 
3.2 415 62.405 29.338 136.954 -0.5831 -0.62429 
3.225 424 69.951 29.241 136.906 -0.5824 -0.62251 
3.25 424 66.661 29.154 136.996 -0.58035 -0.62226 
3.275 424 62.827 29.021 137.117 -0.57737 -0.6217 
3.3 424 58.192 28.92 137.243 -0.57473 -0.62158 
3.325 439 68.356 28.839 137.553 -0.57034 -0.62356 
3.35 439 63.958 28.768 137.937 -0.56525 -0.6264 
3.375 439 63.876 28.74 138.325 -0.56065 -0.6298 
3.4 439 63.336 28.771 138.671 -0.55723 -0.63363 
3.425 439 61.703 28.89 139.035 -0.55465 -0.63883 
3.45 439 60.001 28.955 139.307 -0.55239 -0.64236 
3.475 449 67.979 29.108 139.525 -0.55177 -0.64662 
3.5 449 64.955 29.205 139.721 -0.5507 -0.64985 
3.525 449 61.903 29.306 139.855 -0.55037 -0.65254 
3.55 449 59.594 29.412 139.991 -0.55006 -0.65532 
3.575 460 68.593 29.626 140.157 -0.55062 -0.65987 
3.6 460 66.304 29.729 140.252 -0.5507 -0.6622 
3.625 460 64.53 29.927 140.344 -0.55187 -0.66577 
3.65 460 63.313 30.101 140.43 -0.55279 -0.66892 
3.675 460 62.288 30.276 140.507 -0.55382 -0.672 
3.7 460 61.54 30.511 140.543 -0.55594 -0.67544 
3.725 460 60.637 30.709 140.516 -0.55837 -0.67775 
3.75 460 59.606 30.945 140.502 -0.56103 -0.68063 
3.775 470 67.744 31.159 140.391 -0.56457 -0.68223 
3.8 470 64.825 31.443 140.294 -0.56864 -0.68479 
3.825 470 61.593 31.581 140.132 -0.57198 -0.68485 
3.85 481 68.735 31.955 139.882 -0.57871 -0.68681 
3.875 481 63.602 32.141 139.714 -0.58255 -0.68727 
3.9 481 59.475 32.397 139.31 -0.58989 -0.68604 
3.925 495 68.629 32.691 139.004 -0.59637 -0.68616 
3.95 495 64.9 32.944 138.556 -0.60414 -0.6842 
3.975 495 61.498 33.173 138.207 -0.61045 -0.68292 
4 506 68.72 33.44 137.773 -0.61809 -0.68101 
4.025 506 65.682 33.799 137.259 -0.62747 -0.679 
4.05 506 62.902 33.973 136.682 -0.63585 -0.67432 
4.075 506 60.487 34.165 136.14 -0.64394 -0.67008 
4.1 518 68.505 34.46 135.545 -0.65348 -0.66604 
4.125 518 65.693 34.768 134.87 -0.66398 -0.66098 
4.15 518 63.461 34.876 134.143 -0.67326 -0.65341 
4.175 518 62.192 35.036 133.358 -0.68355 -0.64544 
4.2 518 61.739 35.272 132.572 -0.69438 -0.63789 
4.225 518 61.474 35.488 131.666 -0.70623 -0.62848 
4.25 518 61.182 35.572 130.661 -0.71787 -0.61661 
4.275 518 60.053 35.715 129.547 -0.73096 -0.60356 
4.3 549 68.05 35.678 128.057 -0.74608 -0.58409 
4.325 549 75.244 35.655 126.937 -0.75715 -0.56924 
4.35 538 70.237 35.616 125.911 -0.76686 -0.55535 
4.375 538 75.168 35.472 125.127 -0.77306 -0.54386 
4.4 528 69.733 35.247 124.337 -0.77835 -0.53168 
4.425 528 73.339 35.073 123.571 -0.78368 -0.5201 
4.45 528 76.321 34.932 122.958 -0.78779 -0.51077 
4.475 519 69.201 34.755 122.39 -0.791 -0.50179 
4.5 519 70.793 34.55 121.859 -0.79347 -0.4931 
4.525 519 72.322 34.411 121.344 -0.79637 -0.48505 
4.55 519 72.803 34.278 120.834 -0.79921 -0.47707 
4.575 519 72.289 34.188 120.442 -0.80146 -0.471 
4.6 519 72.751 34.036 120.132 -0.8023 -0.46567 
4.625 519 71.382 33.863 119.581 -0.80477 -0.45682 
4.65 519 70.723 33.775 119.317 -0.80584 -0.45254 
4.675 519 69.265 33.738 118.814 -0.80936 -0.4452 
4.7 519 67.1 33.622 118.496 -0.81044 -0.43995 
4.725 519 66.274 33.483 118.134 -0.81155 -0.43394 
4.75 519 63.792 33.308 117.597 -0.81343 -0.4252 
4.775 519 61.835 33.262 117.252 -0.81542 -0.42 
4.8 519 60.078 33.246 116.993 -0.81711 -0.41621 
4.825 532 69.629 33.109 116.503 -0.81892 -0.40836 
4.85 532 68.26 32.885 116.206 -0.81818 -0.4027 
4.875 532 64.678 32.938 115.805 -0.82165 -0.3973 
4.9 532 62.951 32.853 115.416 -0.82323 -0.39118 
4.925 544 71.467 32.694 114.889 -0.82471 -0.38263 
4.95 544 67.994 32.588 114.683 -0.82467 -0.37902 
4.975 544 65.54 32.539 114.364 -0.82612 -0.37412 
5 544 63.155 32.453 114.008 -0.82726 -0.36846 
5.025 544 60.504 32.325 113.585 -0.82822 -0.36158 
5.05 557 69.116 32.202 113.244 -0.82865 -0.35592 
5.075 557 65.654 32.032 113.032 -0.82759 -0.35184 
5.1 557 61.713 32.013 112.566 -0.83016 -0.34499 
5.125 571 69.596 31.862 112.332 -0.82942 -0.34071 
5.15 571 65.472 31.836 112.026 -0.83085 -0.33613 
5.175 571 62.08 31.635 111.592 -0.83046 -0.32867 
5.2 585 70.162 31.607 111.343 -0.83147 -0.3249 
5.225 585 64.781 31.546 111.157 -0.83163 -0.32185 
5.25 585 61.068 31.513 110.778 -0.83325 -0.31616 
5.275 599 68.354 31.406 110.521 -0.83306 -0.31182 
5.3 599 64.07 31.241 109.988 -0.83344 -0.30316 
5.325 599 59.852 31.187 109.67 -0.83429 -0.29823 
5.35 613 66.85 31.072 109.595 -0.83292 -0.2965 
5.375 613 62.892 30.934 109.358 -0.83201 -0.29231 
5.4 626 68.986 30.89 109.115 -0.83255 -0.28854 
5.425 626 64.354 30.687 108.721 -0.83133 -0.28173 
5.45 626 60.305 30.558 108.31 -0.83127 -0.27508 
5.475 641 67.539 30.524 107.92 -0.83258 -0.26924 
5.5 641 62.729 30.398 107.886 -0.83071 -0.26808 
5.525 654 67.562 30.365 107.461 -0.83214 -0.26175 
5.55 654 62.513 30.177 107.214 -0.83017 -0.2572 
5.575 668 67.489 30.005 107.298 -0.82694 -0.25753 
5.6 668 62.288 29.897 106.925 -0.82679 -0.25159 
5.625 683 67.296 29.897 106.631 -0.82806 -0.24734 
5.65 683 62.034 29.674 106.075 -0.82665 -0.2382 
5.675 700 68.377 29.539 106.051 -0.82442 -0.23719 
5.7 700 61.988 29.5 106.027 -0.82384 -0.23665 
5.725 719 68.71 29.304 105.575 -0.82228 -0.22921 
5.75 719 62.214 29.219 105.591 -0.82073 -0.22901 
5.775 738 67.852 29.078 105.286 -0.81944 -0.22396 
5.8 738 61.097 29.084 105.436 -0.81895 -0.22613 
5.825 757 67.065 28.84 105.16 -0.81567 -0.221 
5.85 757 60.309 28.606 104.035 -0.81558 -0.20388 
5.875 779 65.66 28.7 105.213 -0.81292 -0.22106 
5.9 780 59.514 28.625 104.32 -0.8149 -0.20802 
5.925 780 53.588 28.077 104.524 -0.80399 -0.20829 
5.95 780 47.006 28.421 103.916 -0.8126 -0.20134 
5.975 780 41.679 28.108 103.842 -0.807 -0.19884 
6 780 37.255 28.363 104.341 -0.81 -0.20709 
6.025 780 32.836 28.04 103.461 -0.80702 -0.19317 
6.05 780 29.372 27.905 102.978 -0.80606 -0.18577 
6.075 780 26.689 27.874 103.376 -0.80414 -0.19122 
6.1 780 23.893 27.665 103.871 -0.79846 -0.19717 
6.125 780 21.218 27.839 103.39 -0.80343 -0.19126 
6.15 780 19.034 27.15 103.505 -0.78963 -0.18965 
6.175 780 17.461 27.62 104.347 -0.79594 -0.20357 
6.2 780 15.825 27.472 103.33 -0.79653 -0.18873 
6.225 780 14.338 27.133 102.808 -0.79155 -0.17995 
6.25 780 13.042 27.364 103.825 -0.79277 -0.19509 
6.275 780 11.928 27.724 103.231 -0.80174 -0.18851 
6.3 780 10.494 27.104 102.818 -0.79094 -0.17996 
6.325 780 9.628 27.694 104.191 -0.7979 -0.20177 
6.35 780 8.614 27.577 103.924 -0.79658 -0.19749 
6.375 780 7.598 27.062 103.805 -0.78687 -0.19335 
6.4 780 6.754 27.346 104.268 -0.79088 -0.20112 
6.425 780 6.071 27.412 104.268 -0.79218 -0.20145 
6.45 780 5.34 27.342 103.678 -0.79284 -0.19296 
6.475 780 4.656 29.404 104.76 -0.8272 -0.21794 
6.5 780 4.149 28.098 103.8 -0.80695 -0.1982 

# MINIMA:
0.600 367.0 0.000 0.000 0.000 -0.83429 -0.95013

# MAXIMA:
6.500 3898.9 80.024 40.642 163.993 0.00000 0.00000

# PEAKS:

# END SPECTRUM


# SPECTRUM:
3

# START TIME:
14:46:44

# END TIME:
14:57:23

# THETA ANGLE:
0.00 ø

# INCIDENCE ANGLE:
65.00 ø

# ACCUMULATION NUMBER:
1

# ELLIPSOMETRIC CONFIGURATION:
+90.00 øModulator
-45.00 øAnalyser

# INTEGRATION TIME:
500 ms

# FIRST POINT:
0.6000 eV

# LAST POINT:
6.5000 eV

# INCREMENT:
0.0250 eV

# NUMBER OF POINTS:
237

# DATA:
eV Hv S0 Psi Delta Is Ic
0.6 3600.5 60.601 39.423 159.342 -0.34612 -0.91803 
0.625 3003.6 78.703 39.136 158.555 -0.35797 -0.91134 
0.65 2501.9 79.335 38.995 158.142 -0.36416 -0.9078 
0.675 2305.1 79.508 38.842 157.506 -0.37378 -0.90266 
0.7 1708.2 77.528 38.671 156.747 -0.38519 -0.89644 
0.725 1409.7 70.482 38.5 156.115 -0.39452 -0.89093 
0.75 1409.7 77.122 38.353 155.611 -0.40187 -0.88636 
0.775 1212.9 71.306 38.242 155.042 -0.41027 -0.88151 
0.8 812.8 70.656 38.152 154.513 -0.41807 -0.87702 
0.825 1111.3 77.368 37.925 153.977 -0.42541 -0.87136 
0.85 1111.3 76.686 37.818 153.383 -0.43402 -0.86608 
0.875 717.6 63.086 37.682 152.789 -0.44243 -0.86048 
0.9 819.2 62.682 37.526 152.177 -0.45094 -0.85446 
0.925 1016 77.183 37.496 151.723 -0.45758 -0.85063 
0.95 1016 68.077 37.376 151.166 -0.46529 -0.84519 
0.975 717.6 65.174 37.257 150.508 -0.47443 -0.83882 
1 1016 70.844 37.178 150.07 -0.48046 -0.83453 
1.025 1016 75.423 37.067 149.502 -0.48818 -0.82882 
1.05 616 63.477 36.823 148.794 -0.49716 -0.8207 
1.075 1016 75.676 36.742 148.356 -0.503 -0.81619 
1.1 914.4 66.584 36.589 147.709 -0.51136 -0.80917 
1.125 914.4 68.543 36.573 147.265 -0.51752 -0.80505 
1.15 812.8 64.521 36.453 146.675 -0.52512 -0.79865 
1.175 812.8 69.533 36.281 146.196 -0.53078 -0.79276 
1.2 914.4 71.669 36.147 145.574 -0.53857 -0.78578 
1.225 616 61.328 35.901 145.019 -0.54463 -0.77836 
1.25 425.5 64.192 35.954 144.523 -0.55168 -0.77409 
1.275 723.9 68.551 35.753 144.033 -0.55699 -0.76755 
1.3 723.9 76.242 35.653 143.552 -0.56276 -0.76196 
1.325 825.5 65.106 35.552 143.06 -0.56859 -0.75619 
1.35 527.1 70.775 35.471 142.659 -0.5733 -0.75147 
1.375 927.1 77.384 35.221 142.123 -0.57854 -0.74379 
1.4 628.7 66.599 35.247 141.691 -0.58432 -0.73964 
1.425 1428.8 72.962 35.13 141.26 -0.58902 -0.73416 
1.45 2330.5 63.106 35.18 140.697 -0.59657 -0.72879 
1.475 780 0 0 0 -0.601043 -0.720202 
1.5 493 70.836 34.503 139.684 -0.60405 -0.71188 
1.525 590 77.674 34.389 139.355 -0.6072 -0.70731 
1.55 531 73.186 34.246 138.784 -0.61302 -0.69985 
1.575 569 66.5 34.121 138.422 -0.61636 -0.69475 
1.6 569 75.951 34.012 137.977 -0.62078 -0.6889 
1.625 522 72.005 33.779 137.485 -0.62459 -0.68128 
1.65 522 65.805 33.656 137.14 -0.62757 -0.67629 
1.675 522 79.175 33.632 136.639 -0.63324 -0.67055 
1.7 502 68.635 33.43 136.231 -0.63609 -0.66403 
1.725 492 69.806 33.32 135.798 -0.64004 -0.65812 
1.75 492 79.715 33.184 135.401 -0.64326 -0.65233 
1.775 473 69.067 33 134.99 -0.6461 -0.64586 
1.8 459 71.118 32.942 134.559 -0.65033 -0.6404 
1.825 459 77.592 32.817 134.184 -0.65323 -0.63489 
1.85 446 70.139 32.667 133.723 -0.65675 -0.6281 
1.875 446 76.182 32.525 133.435 -0.65839 -0.62337 
1.9 433 70.08 32.404 133.017 -0.66161 -0.61733 
1.925 433 77.331 32.25 132.658 -0.66377 -0.61162 
1.95 422 71.13 32.168 132.301 -0.66665 -0.60663 
1.975 422 78.2 32.052 131.924 -0.66932 -0.60105 
2 411 70.195 31.966 131.56 -0.67214 -0.59591 
2.025 411 72.836 31.839 131.301 -0.67336 -0.59158 
2.05 411 71.964 31.727 130.798 -0.67721 -0.58452 
2.075 399 70.187 31.594 130.411 -0.67956 -0.57857 
2.1 399 73.999 31.466 130.071 -0.68144 -0.57323 
2.125 399 77.931 31.41 129.657 -0.68487 -0.56772 
2.15 391 69.732 31.263 129.294 -0.68662 -0.56188 
2.175 391 72.503 31.176 128.911 -0.68928 -0.55639 
2.2 391 74.836 31.089 128.506 -0.69208 -0.55063 
2.225 391 77.738 30.98 128.081 -0.69475 -0.54437 
2.25 384 70.215 30.897 127.624 -0.69798 -0.53799 
2.275 384 72.041 30.751 127.215 -0.69987 -0.53153 
2.3 384 73.286 30.626 126.767 -0.70234 -0.52479 
2.325 384 75.416 30.398 126.358 -0.70296 -0.51748 
2.35 384 76.946 30.267 125.882 -0.70542 -0.5103 
2.375 384 78.182 30.049 125.496 -0.70577 -0.50335 
2.4 384 80.035 29.85 125.061 -0.70672 -0.49598 
2.425 375 70.494 29.536 124.724 -0.70503 -0.48863 
2.45 367 69.193 29.265 124.45 -0.70332 -0.48248 
2.475 367 68.829 29.006 124.308 -0.7006 -0.47806 
2.5 388 67.191 28.576 124.372 -0.69342 -0.47429 
2.525 388 67.756 28.333 124.547 -0.68815 -0.47378 
2.55 388 66.522 28.187 124.726 -0.68437 -0.47433 
2.575 388 71.043 28.057 124.841 -0.68134 -0.47427 
2.6 388 66.569 27.976 125.019 -0.67856 -0.47547 
2.625 381 69.411 27.926 125.096 -0.67712 -0.47582 
2.65 381 71.942 27.905 125.181 -0.67608 -0.47659 
2.675 381 63.254 27.875 125.125 -0.67607 -0.47558 
2.7 390 68.892 27.849 125.138 -0.67555 -0.47545 
2.725 390 64.747 27.814 125.154 -0.67484 -0.47524 
2.75 390 68.258 27.796 125.105 -0.67497 -0.47446 
2.775 398 69.412 27.795 125.01 -0.67574 -0.47333 
2.8 398 68.064 27.764 124.888 -0.67623 -0.47154 
2.825 398 67.206 27.732 124.705 -0.67721 -0.46902 
2.85 398 64.137 27.717 124.585 -0.67795 -0.46742 
2.875 398 62.61 27.667 124.39 -0.67871 -0.46455 
2.9 398 61.892 27.647 124.25 -0.67952 -0.46266 
2.925 398 60.419 27.585 124.056 -0.68007 -0.45968 
2.95 398 60.511 27.559 123.878 -0.68106 -0.45728 
2.975 408 68.281 27.501 123.761 -0.68104 -0.45524 
3 408 66.743 27.448 123.57 -0.68166 -0.45237 
3.025 408 64.216 27.373 123.443 -0.6814 -0.45003 
3.05 408 61.406 27.336 123.241 -0.68235 -0.44722 
3.075 408 58.999 27.278 123.104 -0.68245 -0.44495 
3.1 408 75.077 27.223 122.918 -0.68295 -0.44212 
3.125 408 72.793 27.163 122.771 -0.68306 -0.43972 
3.15 408 68.817 27.067 122.631 -0.68247 -0.43698 
3.175 408 64.757 26.98 122.455 -0.68231 -0.43392 
3.2 408 61.345 26.826 122.339 -0.68051 -0.43084 
3.225 416 67.489 26.752 122.244 -0.67992 -0.4289 
3.25 416 64.461 26.598 122.274 -0.67699 -0.42754 
3.275 416 60.323 26.469 122.288 -0.6746 -0.42626 
3.3 428 68.703 26.357 122.34 -0.67221 -0.42561 
3.325 428 62.214 26.188 122.521 -0.66783 -0.4258 
3.35 438 68.788 26.107 122.874 -0.66375 -0.42897 
3.375 438 68.389 26.034 123.239 -0.6597 -0.43234 
3.4 438 67.52 25.976 123.591 -0.65599 -0.43568 
3.425 438 65.92 25.961 124.014 -0.65249 -0.44035 
3.45 438 63.395 26.041 124.384 -0.65105 -0.44552 
3.475 438 60.7 26.079 124.601 -0.65002 -0.44844 
3.5 449 69.289 26.204 124.87 -0.65011 -0.45302 
3.525 449 66.104 26.296 125.173 -0.64929 -0.45757 
3.55 449 63.319 26.382 125.388 -0.64906 -0.46106 
3.575 449 60.759 26.486 125.549 -0.64954 -0.46415 
3.6 459 69.14 26.572 125.828 -0.64875 -0.46837 
3.625 459 66.898 26.708 126.062 -0.64911 -0.47268 
3.65 459 65.33 26.816 126.336 -0.64865 -0.47712 
3.675 459 64.184 27.019 126.498 -0.65067 -0.48143 
3.7 459 62.807 27.162 126.632 -0.65188 -0.48469 
3.725 459 61.637 27.387 126.756 -0.65447 -0.48883 
3.75 459 60.109 27.563 126.911 -0.65599 -0.49272 
3.775 459 58.215 27.836 126.961 -0.65986 -0.49654 
3.8 472 68.301 28.072 127.042 -0.66285 -0.50026 
3.825 472 64.464 28.341 127.02 -0.66719 -0.50314 
3.85 472 60.796 28.582 126.958 -0.67141 -0.50517 
3.875 485 69.084 28.84 126.865 -0.6761 -0.50698 
3.9 485 63.227 29.134 126.754 -0.68145 -0.50893 
3.925 485 58.77 29.42 126.57 -0.68726 -0.50985 
3.95 498 67.619 29.778 126.354 -0.69433 -0.51104 
3.975 498 63.814 30.022 126.108 -0.69997 -0.51058 
4 498 60.552 30.35 125.8 -0.7073 -0.51013 
4.025 509 67.305 30.684 125.509 -0.71448 -0.50981 
4.05 509 64.427 30.94 125.084 -0.72171 -0.50693 
4.075 509 61.713 31.317 124.647 -0.7306 -0.50489 
4.1 520 69.049 31.686 124.202 -0.73934 -0.50249 
4.125 520 65.624 31.901 123.727 -0.74625 -0.4982 
4.15 520 63.098 32.25 123.107 -0.75606 -0.493 
4.175 520 61.54 32.518 122.488 -0.76469 -0.48694 
4.2 520 61.042 32.932 121.727 -0.77621 -0.47989 
4.225 520 60.529 33.212 120.97 -0.78587 -0.47164 
4.25 520 59.723 33.582 119.856 -0.7993 -0.45881 
4.275 531 68.667 33.939 118.783 -0.81193 -0.44604 
4.3 531 60.425 34.152 116.928 -0.82841 -0.42079 
4.325 531 66.4 34.364 115.849 -0.83863 -0.40629 
4.35 531 72.404 34.444 114.466 -0.84911 -0.38635 
4.375 531 78.65 34.452 113.241 -0.85728 -0.36815 
4.4 517 68.984 34.351 112.223 -0.86249 -0.35239 
4.425 517 73.163 34.213 111.315 -0.86633 -0.33803 
4.45 517 76.382 34.089 110.263 -0.8709 -0.32151 
4.475 508 69.991 33.954 109.272 -0.87466 -0.30582 
4.5 508 72.129 33.775 108.562 -0.87613 -0.2942 
4.525 508 73.967 33.583 107.915 -0.87694 -0.2835 
4.55 508 75.387 33.496 107.208 -0.87925 -0.2723 
4.575 508 75.784 33.359 106.623 -0.88018 -0.26277 
4.6 508 75.641 33.183 106.037 -0.88047 -0.25308 
4.625 508 75.059 33.036 105.47 -0.88095 -0.24381 
4.65 508 74.34 32.942 105.124 -0.8811 -0.23814 
4.675 508 72.984 32.892 104.659 -0.88231 -0.2308 
4.7 508 71.384 32.757 104.307 -0.88184 -0.22489 
4.725 508 69.744 32.647 103.66 -0.88277 -0.21455 
4.75 508 68.519 32.547 103.21 -0.88299 -0.20727 
4.775 508 65.163 32.431 102.829 -0.88269 -0.20101 
4.8 508 63.471 32.437 102.367 -0.88436 -0.19391 
4.825 508 60.856 32.321 101.846 -0.8844 -0.1855 
4.85 508 59.274 32.163 101.407 -0.88347 -0.17825 
4.875 521 68.126 32.214 101.081 -0.88523 -0.17337 
4.9 521 66.254 32.091 100.534 -0.885 -0.16457 
4.925 521 64.195 31.995 100.264 -0.88433 -0.16013 
4.95 521 61.402 31.892 99.587 -0.88461 -0.14941 
4.975 531 68.181 31.834 99.311 -0.88444 -0.145 
5 531 65.414 31.82 98.81 -0.88545 -0.13723 
5.025 531 62.669 31.748 98.59 -0.88486 -0.13367 
5.05 531 59.275 31.615 98.175 -0.88375 -0.12696 
5.075 545 68.399 31.518 97.809 -0.88303 -0.1211 
5.1 545 64.324 31.432 97.341 -0.88263 -0.1137 
5.125 545 60.964 31.34 97.134 -0.88158 -0.11034 
5.15 559 69.302 31.284 96.645 -0.8816 -0.10271 
5.175 559 64.9 31.217 96.293 -0.88114 -0.09716 
5.2 559 60.823 31.105 95.854 -0.88005 -0.09023 
5.225 572 67.361 31.113 95.413 -0.88084 -0.08347 
5.25 572 62.727 31.002 94.954 -0.87969 -0.07625 
5.275 586 70.652 31.01 94.765 -0.88005 -0.07336 
5.3 586 66.425 30.91 94.39 -0.87888 -0.06748 
5.325 586 61.697 30.829 94.107 -0.87787 -0.06303 
5.35 599 68.581 30.738 93.614 -0.87686 -0.05538 
5.375 599 63.795 30.595 93.252 -0.87481 -0.0497 
5.4 599 60.648 30.449 92.865 -0.87266 -0.04367 
5.425 614 67.583 30.415 92.466 -0.87236 -0.03757 
5.45 614 62.862 30.351 92.458 -0.87129 -0.0374 
5.475 628 69.93 30.208 91.978 -0.86911 -0.03001 
5.5 628 64.561 30.184 91.872 -0.86876 -0.02839 
5.525 640 69.235 30.142 91.253 -0.86828 -0.01899 
5.55 640 63.802 30.036 90.764 -0.86657 -0.01156 
5.575 652 68.259 29.905 90.578 -0.86432 -0.00871 
5.6 652 62.954 29.724 90.288 -0.86116 -0.00433 
5.625 666 67.249 29.712 90.034 -0.86096 -0.00051 
5.65 666 60.931 29.62 89.761 -0.85931 0.00358 
5.675 682 66.927 29.599 89.316 -0.85887 0.01025 
5.7 682 60.724 29.412 89.159 -0.85548 0.01256 
5.725 703 69.445 29.283 88.91 -0.85309 0.01623 
5.75 703 63.243 29.338 88.587 -0.85398 0.02107 
5.775 717 65.349 29.167 88.265 -0.85073 0.02578 
5.8 717 58.677 29.032 88.143 -0.84819 0.02749 
5.825 742 67.895 28.927 87.904 -0.84613 0.03097 
5.85 742 60.935 28.839 87.527 -0.84427 0.03647 
5.875 758 63.984 28.789 86.959 -0.84293 0.04478 
5.9 773 65.87 28.608 86.672 -0.8393 0.04881 
5.925 780 62.359 28.757 87.202 -0.84251 0.04117 
5.95 780 55.29 28.355 86.569 -0.83441 0.05002 
5.975 780 49.109 28.217 87.057 -0.83214 0.04279 
6 780 43.801 28.225 86.427 -0.83177 0.05194 
6.025 780 38.626 28.067 85.964 -0.82828 0.05845 
6.05 780 34.263 27.893 86.656 -0.82553 0.04824 
6.075 780 31.024 27.756 86.179 -0.82241 0.05493 
6.1 780 27.94 27.687 85.685 -0.82055 0.06192 
6.125 780 24.625 27.662 86.537 -0.82087 0.04968 
6.15 780 22.449 27.86 85.164 -0.82336 0.06966 
6.175 780 20.144 27.866 85.131 -0.82343 0.07015 
6.2 780 18.299 27.867 85.719 -0.82413 0.06169 
6.225 780 16.607 27.703 85.631 -0.82081 0.06271 
6.25 780 15.037 27.271 85.614 -0.81216 0.06229 
6.275 780 13.675 27.56 86.192 -0.81854 0.05449 
6.3 780 12.304 27.683 84.17 -0.81854 0.053715 
6.325 780 11.017 27.721 86.142 -0.82168 0.05541 
6.35 780 9.773 27.633 86.162 -0.81997 0.05502 
6.375 780 8.726 27.809 86.214 -0.8235 0.05449 
6.4 780 7.694 27.326 85.963 -0.81362 0.05743 
6.425 780 6.874 27.498 85.552 -0.81665 0.06353 
6.45 780 6.103 28.769 87.824 -0.84314 0.03203 
6.475 780 5.356 27.828 86.493 -0.82411 0.05051 
6.5 780 4.713 28.856 88.128 -0.84493 0.02762 

# MINIMA:
0.600 367.0 0.000 0.000 0.000 -0.88545 -0.91803

# MAXIMA:
6.500 3600.5 80.035 39.423 159.342 0.00000 0.08358

# PEAKS:

# END SPECTRUM


# SPECTRUM:
4

# START TIME:
14:58:12

# END TIME:
15:08:48

# THETA ANGLE:
0.00 ø

# INCIDENCE ANGLE:
70.00 ø

# ACCUMULATION NUMBER:
1

# ELLIPSOMETRIC CONFIGURATION:
+90.00 øModulator
-45.00 øAnalyser

# INTEGRATION TIME:
500 ms

# FIRST POINT:
0.6000 eV

# LAST POINT:
6.5000 eV

# INCREMENT:
0.0250 eV

# NUMBER OF POINTS:
237

# DATA:
eV Hv S0 Psi Delta Is Ic
0.6 3397.3 61.845 37.632 152.477 -0.44691 -0.85765 
0.625 2800.4 79.241 37.382 151.631 -0.45844 -0.84898 
0.65 2298.7 78.701 37.185 151.046 -0.46621 -0.84265 
0.675 2101.9 77.716 36.999 150.234 -0.47722 -0.83443 
0.7 1600.2 75.774 36.774 149.21 -0.49094 -0.82388 
0.725 1403.4 75.608 36.652 148.447 -0.50122 -0.81623 
0.75 1301.8 70.234 36.486 147.753 -0.51018 -0.80868 
0.775 1200.2 75.605 36.374 147.051 -0.51942 -0.8014 
0.8 800.1 74.48 36.177 146.184 -0.53034 -0.79173 
0.825 997 64.168 35.964 145.491 -0.53859 -0.78339 
0.85 997 62.832 35.832 144.78 -0.54744 -0.77547 
0.875 698.5 64.688 35.775 144.016 -0.55736 -0.76758 
0.9 800.1 64.664 35.572 143.141 -0.56766 -0.75717 
0.925 901.7 63.015 35.531 142.82 -0.57161 -0.75361 
0.95 1003.3 70.377 35.358 141.845 -0.58313 -0.74222 
0.975 704.9 67.937 35.179 141.015 -0.59252 -0.73208 
1 1003.3 72.173 35.044 140.388 -0.59946 -0.72433 
1.025 1003.3 76.843 34.977 139.746 -0.60703 -0.71695 
1.05 603.3 65.862 34.888 138.989 -0.61575 -0.70806 
1.075 1003.3 76.625 34.682 138.299 -0.62255 -0.69872 
1.1 901.7 67.423 34.579 137.514 -0.63122 -0.68918 
1.125 901.7 69.178 34.538 136.877 -0.63849 -0.68176 
1.15 800.1 64.824 34.336 136.065 -0.64632 -0.67081 
1.175 800.1 70.142 34.2 135.41 -0.65274 -0.66213 
1.2 901.7 71.822 34.09 134.639 -0.66056 -0.6523 
1.225 603.3 61.703 33.963 134.102 -0.66547 -0.64492 
1.25 419.1 61.932 33.762 133.273 -0.67279 -0.63341 
1.275 717.6 70.224 33.661 132.729 -0.67778 -0.62607 
1.3 717.6 77.663 33.552 132.007 -0.68452 -0.6165 
1.325 819.2 65.893 33.397 131.43 -0.6891 -0.60817 
1.35 520.7 69.271 33.218 130.78 -0.69409 -0.59869 
1.375 920.8 77.107 33.105 130.144 -0.69948 -0.58993 
1.4 622.3 64.804 33.012 129.501 -0.70504 -0.5812 
1.425 1422.4 70.665 32.896 128.919 -0.70962 -0.57298 
1.45 2419.4 62.894 32.902 128.324 -0.7156 -0.56563 
1.475 780 0 0 0 -0.719597 -0.554548 
1.5 480 61.757 32.361 126.936 -0.72277 -0.54339 
1.525 580 72.049 32.247 126.418 -0.72628 -0.53581 
1.55 527 72.307 32.079 125.962 -0.72846 -0.52853 
1.575 565 66.348 31.985 125.276 -0.73357 -0.51894 
1.6 565 75.355 31.86 124.626 -0.73782 -0.50949 
1.625 518 71.117 31.728 124.129 -0.74051 -0.50192 
1.65 518 65.136 31.573 123.648 -0.74269 -0.49434 
1.675 518 78.277 31.51 123.082 -0.7467 -0.48644 
1.7 500 69.875 31.361 122.413 -0.75033 -0.47641 
1.725 490 70.514 31.256 121.926 -0.75292 -0.46913 
1.75 479 67.882 31.122 121.33 -0.7559 -0.46015 
1.775 479 79.23 31.046 120.873 -0.75849 -0.45345 
1.8 457 71.037 30.874 120.274 -0.76074 -0.44408 
1.825 457 76.979 30.805 119.829 -0.76318 -0.43759 
1.85 444 69.676 30.629 119.223 -0.76521 -0.42806 
1.875 444 76.377 30.534 118.771 -0.76715 -0.42123 
1.9 432 71.329 30.402 118.221 -0.76919 -0.4128 
1.925 432 78.194 30.34 117.755 -0.77158 -0.40603 
1.95 420 70.34 30.189 117.254 -0.77281 -0.39808 
1.975 420 77.895 30.102 116.84 -0.77431 -0.39181 
2 410 69.999 30.029 116.285 -0.77693 -0.38373 
2.025 410 73.332 29.892 115.8 -0.778 -0.3761 
2.05 410 72.692 29.813 115.304 -0.77997 -0.36876 
2.075 398 70.822 29.673 114.824 -0.78078 -0.36116 
2.1 398 75.145 29.617 114.323 -0.78299 -0.35392 
2.125 391 69.113 29.502 113.789 -0.78438 -0.34577 
2.15 391 71.737 29.441 113.285 -0.78638 -0.33842 
2.175 391 74.676 29.369 112.798 -0.78802 -0.33122 
2.2 391 76.721 29.262 112.281 -0.78918 -0.32336 
2.225 384 69.653 29.175 111.729 -0.79078 -0.31515 
2.25 384 71.814 29.037 111.167 -0.79147 -0.30647 
2.275 384 73.627 29.006 110.625 -0.7938 -0.29876 
2.3 384 75.02 28.807 110.071 -0.79318 -0.2898 
2.325 384 76.533 28.686 109.454 -0.79411 -0.28049 
2.35 384 77.578 28.543 108.865 -0.7944 -0.27144 
2.375 384 78.941 28.36 108.293 -0.79375 -0.26239 
2.4 377 70.474 28.144 107.677 -0.79256 -0.25258 
2.425 377 73.208 27.842 107.15 -0.78921 -0.24355 
2.45 368 70.107 27.597 106.681 -0.78653 -0.23568 
2.475 368 70.47 27.252 106.436 -0.78088 -0.23036 
2.5 378 67.96 26.837 106.291 -0.77332 -0.226 
2.525 378 68.926 26.572 106.267 -0.76811 -0.22414 
2.55 378 67.459 26.368 106.361 -0.76363 -0.22419 
2.575 378 71.89 26.23 106.486 -0.76033 -0.22502 
2.6 378 66.922 26.11 106.589 -0.75747 -0.22565 
2.625 371 69.579 26.054 106.753 -0.75567 -0.22748 
2.65 371 72.298 26.008 106.791 -0.75457 -0.22769 
2.675 371 63.016 25.981 106.684 -0.75444 -0.22612 
2.7 380 68.886 25.956 106.649 -0.75407 -0.2255 
2.725 380 64.567 25.924 106.573 -0.75371 -0.22431 
2.75 380 67.153 25.93 106.531 -0.754 -0.22378 
2.775 388 68.648 25.909 106.399 -0.75407 -0.22192 
2.8 388 67.302 25.905 106.199 -0.75476 -0.21926 
2.825 388 66.996 25.869 106.03 -0.75465 -0.21682 
2.85 388 63.379 25.872 105.811 -0.75555 -0.21396 
2.875 388 61.391 25.837 105.537 -0.75582 -0.21013 
2.9 388 60.241 25.81 105.378 -0.75584 -0.20787 
2.925 388 59.018 25.791 105.144 -0.75628 -0.20468 
2.95 397 69.916 25.775 104.959 -0.75662 -0.20216 
2.975 397 66.176 25.764 104.686 -0.75734 -0.19848 
3 397 64.206 25.678 104.479 -0.75623 -0.19528 
3.025 397 61.733 25.644 104.202 -0.75645 -0.19144 
3.05 406 69.527 25.607 104.024 -0.75625 -0.18889 
3.075 406 66.839 25.562 103.752 -0.75618 -0.18506 
3.1 396 70.059 25.516 103.543 -0.75589 -0.18207 
3.125 396 67.953 25.453 103.268 -0.75539 -0.17812 
3.15 396 64.325 25.375 102.931 -0.75474 -0.17329 
3.175 396 60.351 25.281 102.716 -0.75338 -0.17001 
3.2 406 68.623 25.201 102.59 -0.75201 -0.16796 
3.225 406 65.203 25.072 102.315 -0.75 -0.16373 
3.25 406 61.619 24.943 102.081 -0.74783 -0.16006 
3.275 416 69.062 24.804 102.08 -0.74477 -0.15939 
3.3 416 63.824 24.629 101.941 -0.74127 -0.15676 
3.325 425 66.815 24.495 101.995 -0.73811 -0.15682 
3.35 425 62.305 24.318 102.134 -0.73375 -0.15776 
3.375 425 61.89 24.225 102.386 -0.73096 -0.16052 
3.4 425 61.277 24.105 102.74 -0.72724 -0.16442 
3.425 425 59.445 24.063 103.139 -0.72513 -0.16926 
3.45 436 69.287 24.042 103.535 -0.72346 -0.17415 
3.475 436 65.946 24.083 103.823 -0.7235 -0.17802 
3.5 436 62.76 24.086 104.093 -0.72272 -0.18143 
3.525 436 59.715 24.132 104.364 -0.72288 -0.18513 
3.55 446 67.216 24.174 104.542 -0.72327 -0.18761 
3.575 446 64.318 24.218 104.864 -0.72317 -0.19194 
3.6 446 61.926 24.26 105.162 -0.72312 -0.19595 
3.625 446 60.078 24.327 105.448 -0.72362 -0.19997 
3.65 456 68.242 24.43 105.851 -0.72448 -0.2057 
3.675 456 67.327 24.524 106.102 -0.72564 -0.20947 
3.7 456 65.514 24.661 106.472 -0.72725 -0.21504 
3.725 456 64.144 24.797 106.734 -0.72923 -0.21925 
3.75 456 62.37 24.98 106.897 -0.73255 -0.22252 
3.775 456 59.831 25.139 107.293 -0.73439 -0.22863 
3.8 469 70.596 25.408 107.498 -0.73925 -0.23306 
3.825 469 66.427 25.577 107.688 -0.74202 -0.23663 
3.85 469 62.019 25.825 107.814 -0.74664 -0.23992 
3.875 478 65.539 26.059 107.951 -0.75085 -0.24326 
3.9 478 60.214 26.346 108.07 -0.75616 -0.24672 
3.925 492 69.442 26.644 108.141 -0.76181 -0.2496 
3.95 492 64.496 26.914 108.146 -0.76709 -0.25141 
3.975 492 60.856 27.209 108.159 -0.77278 -0.25347 
4 503 67.387 27.528 108.101 -0.77914 -0.25467 
4.025 503 63.655 27.89 107.996 -0.78644 -0.25547 
4.05 503 60.69 28.169 107.803 -0.79246 -0.25448 
4.075 514 67.517 28.55 107.615 -0.80024 -0.25408 
4.1 514 64.039 28.877 107.435 -0.8069 -0.25341 
4.125 514 60.863 29.308 107.229 -0.81539 -0.25287 
4.15 526 69.562 29.659 106.911 -0.82283 -0.25017 
4.175 526 67.424 30.113 106.476 -0.83236 -0.24618 
4.2 526 66.796 30.473 106.131 -0.83975 -0.24287 
4.225 526 65.736 31.024 105.533 -0.85108 -0.23655 
4.25 526 64.616 31.436 104.756 -0.86064 -0.22668 
4.275 526 63.738 31.929 103.884 -0.87148 -0.21542 
4.3 526 63.484 32.348 102.426 -0.88287 -0.19453 
4.325 526 69.451 32.808 101.238 -0.89334 -0.1775 
4.35 526 76.032 33.099 99.988 -0.90108 -0.1587 
4.375 516 71.507 33.359 98.598 -0.90824 -0.13733 
4.4 516 76.586 33.374 97.401 -0.91113 -0.11836 
4.425 506 70.265 33.379 96.147 -0.91356 -0.09838 
4.45 506 73.808 33.457 94.781 -0.91671 -0.07668 
4.475 506 77.285 33.487 93.675 -0.91843 -0.05898 
4.5 496 68.943 33.332 92.573 -0.91727 -0.04122 
4.525 496 71.426 33.229 91.813 -0.91631 -0.029 
4.55 496 73.145 33.143 90.851 -0.91547 -0.0136 
4.575 496 74.395 33.02 90.178 -0.91383 -0.00284 
4.6 496 75.402 32.874 89.346 -0.91169 0.0104 
4.625 496 74.384 32.745 88.728 -0.90966 0.02021 
4.65 496 75.362 32.635 88.23 -0.90785 0.02805 
4.675 496 73.026 32.612 87.723 -0.90724 0.03607 
4.7 496 72.186 32.521 87.181 -0.90553 0.0446 
4.725 496 70.777 32.357 86.746 -0.90273 0.05132 
4.75 496 67.703 32.292 86.091 -0.90111 0.06157 
4.775 496 66.815 32.307 85.574 -0.90075 0.06972 
4.8 496 63.778 32.218 85.129 -0.89885 0.07659 
4.825 496 62.156 32.157 84.664 -0.89727 0.08381 
4.85 496 59.239 32.061 84.125 -0.895 0.09209 
4.875 509 70.133 32.201 83.579 -0.89619 0.10086 
4.9 509 66.744 32.085 83.196 -0.89375 0.10663 
4.925 509 64.317 32.006 82.882 -0.89196 0.11138 
4.95 509 62.53 31.858 82.472 -0.88888 0.11746 
4.975 509 59.785 31.928 81.863 -0.88865 0.12705 
5 522 69.173 31.87 81.54 -0.88703 0.13194 
5.025 522 66.172 31.826 81.087 -0.88529 0.13884 
5.05 522 62.641 31.712 80.616 -0.88237 0.14582 
5.075 522 60.365 31.64 80.479 -0.88091 0.14775 
5.1 535 68.603 31.6 80.039 -0.87913 0.1544 
5.125 535 64.359 31.59 79.514 -0.87753 0.16242 
5.15 535 60.107 31.487 79.135 -0.87482 0.16791 
5.175 548 66.746 31.537 78.584 -0.87396 0.17647 
5.2 548 62.093 31.539 78.189 -0.87275 0.1825 
5.225 560 69.087 31.373 78.103 -0.86989 0.18327 
5.25 560 64.502 31.518 77.372 -0.86973 0.19485 
5.275 560 60.172 31.387 77.081 -0.86671 0.19881 
5.3 575 69.194 31.375 76.867 -0.86576 0.202 
5.325 575 64.477 31.309 76.444 -0.86322 0.20814 
5.35 575 60.595 31.269 75.976 -0.86088 0.21503 
5.375 591 68.984 31.079 75.519 -0.85614 0.22111 
5.4 591 64.58 31.033 75.295 -0.85454 0.22427 
5.425 591 60.827 31.046 74.834 -0.85292 0.23119 
5.45 606 68.679 30.993 74.556 -0.85095 0.23509 
5.475 606 63.519 30.937 74.111 -0.84822 0.24144 
5.5 606 59.154 30.823 73.773 -0.84497 0.24592 
5.525 625 68.685 30.809 73.425 -0.84324 0.25097 
5.55 625 63.236 30.801 73.247 -0.84233 0.25356 
5.575 638 67.867 30.592 72.994 -0.83785 0.25626 
5.6 638 63.106 30.748 72.295 -0.83716 0.26725 
5.625 652 67.394 30.461 72.221 -0.83222 0.26687 
5.65 664 70.603 30.612 71.582 -0.83161 0.27693 
5.675 664 64.789 30.507 71.415 -0.82912 0.27879 
5.7 678 69.353 30.33 71.416 -0.82627 0.27782 
5.725 678 62.686 30.244 71.408 -0.82484 0.27747 
5.75 695 68.881 30.132 70.554 -0.81878 0.28908 
5.775 695 61.707 30.023 70.729 -0.81788 0.28595 
5.8 715 69.044 30.164 70.068 -0.81682 0.29621 
5.825 729 70.495 30.02 69.606 -0.81207 0.30191 
5.85 729 63.68 29.971 69.458 -0.81049 0.30371 
5.875 743 64.661 29.766 69.118 -0.80529 0.30722 
5.9 758 66.344 29.794 68.615 -0.80303 0.31447 
5.925 777 70.133 29.848 68.204 -0.80164 0.32057 
5.95 777 62.678 29.397 68.933 -0.79814 0.30744 
5.975 780 56.668 29.387 68.318 -0.79463 0.31594 
6 780 50.498 29.45 68.135 -0.79467 0.31888 
6.025 780 44.569 29.216 67.137 -0.78508 0.33103 
6.05 780 39.98 29.21 68.611 -0.79323 0.31068 
6.075 780 35.683 28.864 68.151 -0.78479 0.31467 
6.1 780 32.024 29.108 67.496 -0.78531 0.32534 
6.125 780 28.398 28.96 67.839 -0.78471 0.31961 
6.15 780 25.643 28.892 67.176 -0.7798 0.32819 
6.175 780 23.544 28.539 67.246 -0.77409 0.32467 
6.2 780 20.901 28.613 66.969 -0.7738 0.32895 
6.225 780 18.848 28.471 67.831 -0.77616 0.31625 
6.25 780 17.058 28.605 67.699 -0.77778 0.319 
6.275 780 15.739 28.583 67.163 -0.77438 0.32611 
6.3 780 13.966 28.216 67.483 -0.76971 0.3191 
6.325 780 12.666 28.354 66.728 -0.76787 0.33025 
6.35 780 11.185 28.216 67.833 -0.77165 0.31439 
6.375 780 9.947 28.225 68.454 -0.77517 0.30607 
6.4 780 8.741 28.256 68.009 -0.77332 0.31231 
6.425 780 8.025 27.818 68.163 -0.76624 0.30704 
6.45 780 7.032 28.634 67.954 -0.77969 0.31575 
6.475 780 6.183 27.624 70.687 -0.7754 0.27174 
6.5 780 5.399 28.602 70.333 -0.79156 0.28291 

# MINIMA:
0.600 368.0 0.000 0.000 0.000 -0.91843 -0.85765

# MAXIMA:
6.500 3397.3 79.241 37.632 152.477 0.00000 0.33103

# PEAKS:

# END SPECTRUM


# SPECTRUM:
5

# START TIME:
15:09:36

# END TIME:
15:20:13

# THETA ANGLE:
0.00 ø

# INCIDENCE ANGLE:
75.00 ø

# ACCUMULATION NUMBER:
1

# ELLIPSOMETRIC CONFIGURATION:
+90.00 øModulator
-45.00 øAnalyser

# INTEGRATION TIME:
500 ms

# FIRST POINT:
0.6000 eV

# LAST POINT:
6.5000 eV

# INCREMENT:
0.0250 eV

# NUMBER OF POINTS:
237

# DATA:
eV Hv S0 Psi Delta Is Ic
0.6 2997.2 62.089 35.247 141.824 -0.58261 -0.741 
0.625 2400.3 78.455 34.909 140.511 -0.59688 -0.72436 
0.65 2000.3 79.742 34.684 139.752 -0.60466 -0.7143 
0.675 1803.4 76.876 34.434 138.623 -0.61656 -0.69992 
0.7 1403.4 71.624 34.324 137.378 -0.63068 -0.68533 
0.725 1301.8 77.411 34.143 136.083 -0.64439 -0.66923 
0.75 1200.2 71.072 33.95 135.174 -0.65316 -0.65715 
0.775 1098.6 76.159 33.808 134.265 -0.66217 -0.64539 
0.8 698.5 69.669 33.689 133.154 -0.67339 -0.63134 
0.825 895.4 63.255 33.519 132.483 -0.67904 -0.62185 
0.85 895.4 62.41 33.361 131.365 -0.68942 -0.60706 
0.875 616 62.033 33.209 130.255 -0.69944 -0.59223 
0.9 717.6 64.132 33.124 129.486 -0.70642 -0.58203 
0.925 819.2 64.502 33 128.552 -0.71443 -0.56934 
0.95 920.8 73.313 32.899 127.538 -0.72326 -0.55573 
0.975 622.3 63.356 32.842 126.446 -0.73306 -0.54136 
1 920.8 74.501 32.648 125.686 -0.73788 -0.52995 
1.025 920.8 78.836 32.531 124.597 -0.74642 -0.51487 
1.05 533.4 60.542 32.427 123.679 -0.75328 -0.50199 
1.075 831.9 61.288 32.3 122.655 -0.76056 -0.48742 
1.1 831.9 68.039 32.247 121.684 -0.76803 -0.47404 
1.125 831.9 68.295 32.12 120.6 -0.7752 -0.45846 
1.15 730.3 62.841 32.011 119.856 -0.77966 -0.44753 
1.175 730.3 67.216 31.964 119.073 -0.78506 -0.43648 
1.2 831.9 69.621 31.848 117.988 -0.79161 -0.42069 
1.225 635 79.726 31.714 117.187 -0.79556 -0.40863 
1.25 400.1 63.405 31.546 116.324 -0.79927 -0.39544 
1.275 698.5 71.334 31.443 115.358 -0.80434 -0.3812 
1.3 698.5 78.355 31.327 114.621 -0.80749 -0.37006 
1.325 800.1 65.248 31.24 113.914 -0.81073 -0.35949 
1.35 501.7 70.015 31.074 113.04 -0.81363 -0.34603 
1.375 901.7 75.162 31.003 112.208 -0.81749 -0.33375 
1.4 603.3 65.006 30.894 111.492 -0.81993 -0.32285 
1.425 1403.4 67.043 30.892 110.624 -0.82469 -0.31038 
1.45 2501.9 62.491 30.87 109.912 -0.82815 -0.29998 
1.475 780 0 0 0 -0.829397 -0.28627 
1.5 462 58.213 30.452 108.182 -0.83017 -0.27266 
1.525 566 73.746 30.384 107.51 -0.83221 -0.26256 
1.55 513 72.308 30.229 106.754 -0.83307 -0.25078 
1.575 550 67.022 30.097 105.902 -0.83451 -0.23775 
1.6 550 76.357 30.056 105.209 -0.83663 -0.22745 
1.625 505 72.321 29.985 104.487 -0.83824 -0.21658 
1.65 505 66.723 29.898 103.853 -0.8391 -0.20692 
1.675 494 68.202 29.87 103.166 -0.84104 -0.19674 
1.7 494 78.965 29.774 102.582 -0.84136 -0.18778 
1.725 475 68.694 29.632 101.941 -0.84093 -0.17785 
1.75 475 78.451 29.593 101.118 -0.84272 -0.16562 
1.775 458 70.318 29.512 100.588 -0.84278 -0.15753 
1.8 443 69.836 29.408 99.84 -0.84292 -0.1462 
1.825 443 75.518 29.371 99.138 -0.84399 -0.13575 
1.85 432 69.923 29.244 98.576 -0.843 -0.12713 
1.875 432 76.486 29.195 98.016 -0.84331 -0.11876 
1.9 420 70.601 29.119 97.323 -0.84332 -0.10837 
1.925 420 77.57 29.059 96.756 -0.84325 -0.0999 
1.95 410 71.08 28.98 96.151 -0.84279 -0.09083 
1.975 410 78.738 28.909 95.566 -0.84237 -0.08209 
2 399 69.667 28.873 94.942 -0.84254 -0.07285 
2.025 399 72.154 28.783 94.401 -0.84152 -0.06476 
2.05 399 71.549 28.762 93.783 -0.84178 -0.05565 
2.075 387 68.659 28.666 93.15 -0.84055 -0.04626 
2.1 387 72.66 28.651 92.59 -0.84067 -0.03803 
2.125 387 76.072 28.597 91.977 -0.84001 -0.029 
2.15 387 78.546 28.561 91.378 -0.83959 -0.0202 
2.175 379 69.926 28.517 90.773 -0.83892 -0.01131 
2.2 379 71.942 28.451 90.165 -0.83773 -0.00241 
2.225 379 73.874 28.465 89.526 -0.83797 0.00693 
2.25 379 76.208 28.379 88.882 -0.8362 0.01632 
2.275 379 78.074 28.367 88.271 -0.83575 0.02522 
2.3 379 79.031 28.266 87.586 -0.83345 0.03514 
2.325 371 69.046 28.181 86.856 -0.8313 0.04566 
2.35 371 69.828 28.057 86.112 -0.82824 0.05629 
2.375 371 70.976 27.952 85.429 -0.82546 0.066 
2.4 371 72.592 27.776 84.681 -0.8211 0.07644 
2.425 371 75.457 27.57 83.957 -0.81599 0.08638 
2.45 361 70.534 27.348 83.37 -0.81064 0.09423 
2.475 361 69.824 27.05 82.92 -0.80387 0.09984 
2.5 361 69.628 26.619 82.504 -0.79428 0.10452 
2.525 361 69.575 26.395 82.255 -0.78916 0.10733 
2.55 361 68.217 26.16 82.258 -0.78422 0.10662 
2.575 361 72.056 26.021 82.245 -0.78125 0.10639 
2.6 361 67.098 25.89 82.284 -0.77854 0.10548 
2.625 361 79.875 25.856 82.319 -0.77787 0.10492 
2.65 353 70.616 25.801 82.248 -0.77656 0.10571 
2.675 353 61.023 25.734 82.323 -0.77525 0.10449 
2.7 364 69.373 25.748 82.174 -0.77528 0.10656 
2.725 364 64.624 25.745 82.012 -0.77492 0.10874 
2.75 364 67.279 25.739 81.979 -0.77472 0.10917 
2.775 372 68.325 25.738 81.807 -0.77436 0.1115 
2.8 372 67.053 25.777 81.577 -0.77475 0.11473 
2.825 372 65.952 25.759 81.418 -0.77404 0.11681 
2.85 372 62.406 25.769 81.237 -0.77387 0.11929 
2.875 372 60.647 25.757 80.999 -0.77311 0.12246 
2.9 372 59.146 25.733 80.888 -0.77236 0.12388 
2.925 380 67.147 25.759 80.515 -0.7721 0.12899 
2.95 380 66.442 25.793 80.191 -0.77208 0.13349 
2.975 380 62.752 25.756 80.005 -0.77086 0.13585 
3 380 60.713 25.777 79.714 -0.77061 0.13985 
3.025 389 69.126 25.771 79.407 -0.76972 0.14395 
3.05 389 66.018 25.756 79.126 -0.76868 0.14766 
3.075 389 63.102 25.734 78.837 -0.76746 0.15145 
3.1 381 68.709 25.703 78.5 -0.76589 0.15582 
3.125 381 66.594 25.665 78.199 -0.76425 0.15967 
3.15 381 62.899 25.604 77.867 -0.76202 0.16382 
3.175 389 68.603 25.6 77.61 -0.76119 0.16722 
3.2 389 64.851 25.528 77.296 -0.75873 0.17104 
3.225 389 61.63 25.425 77.035 -0.75574 0.17399 
3.25 397 68.161 25.384 76.69 -0.75379 0.17833 
3.275 397 63.795 25.239 76.423 -0.74982 0.18108 
3.3 405 67.382 25.1 76.279 -0.74637 0.18224 
3.325 405 60.817 24.897 76.21 -0.74172 0.18204 
3.35 416 69.421 24.806 76.032 -0.73916 0.18385 
3.375 416 68.397 24.611 76.212 -0.73543 0.18047 
3.4 416 67.364 24.511 76.391 -0.73376 0.17764 
3.425 416 65.353 24.405 76.612 -0.73207 0.17424 
3.45 416 62.615 24.366 76.816 -0.73183 0.17143 
3.475 416 59.379 24.327 77.164 -0.73197 0.16678 
3.5 427 67.769 24.307 77.312 -0.73196 0.1648 
3.525 427 64.027 24.293 77.621 -0.73251 0.16077 
3.55 427 60.79 24.264 77.861 -0.73252 0.15756 
3.575 438 69.72 24.289 78.087 -0.73371 0.15479 
3.6 438 67.105 24.242 78.262 -0.73312 0.15232 
3.625 438 64.104 24.255 78.677 -0.73449 0.14707 
3.65 438 62.02 24.263 78.934 -0.73532 0.14381 
3.675 438 59.965 24.334 79.308 -0.73786 0.13932 
3.7 448 68.744 24.399 79.63 -0.74011 0.13543 
3.725 448 66.434 24.477 80.025 -0.74279 0.13064 
3.75 448 64.285 24.585 80.353 -0.74596 0.1268 
3.775 448 61.754 24.691 80.736 -0.74916 0.1222 
3.8 459 69.376 24.844 81.113 -0.75338 0.11781 
3.825 459 64.595 24.967 81.467 -0.75682 0.11356 
3.85 459 60.123 25.111 81.795 -0.76067 0.10968 
3.875 473 68.006 25.303 82.074 -0.76542 0.10656 
3.9 473 62.528 25.514 82.485 -0.77078 0.10168 
3.925 483 67.139 25.732 82.623 -0.77574 0.10044 
3.95 483 62.502 25.99 82.98 -0.7819 0.09628 
3.975 493 68.099 26.217 83.244 -0.78715 0.09324 
4 493 63.727 26.468 83.415 -0.79269 0.0915 
4.025 493 59.851 26.693 83.577 -0.79763 0.08979 
4.05 506 68.868 27.028 83.635 -0.8046 0.08976 
4.075 506 65.57 27.297 83.827 -0.81034 0.08764 
4.1 506 61.171 27.705 84.024 -0.81875 0.0857 
4.125 516 67.326 28.034 84.076 -0.82528 0.08563 
4.15 516 64.629 28.443 84.097 -0.83314 0.08615 
4.175 516 62.31 28.826 84.102 -0.84034 0.08682 
4.2 516 61.141 29.278 84.072 -0.84859 0.08811 
4.225 516 60.128 29.82 83.995 -0.85813 0.09027 
4.25 526 68.06 30.422 83.638 -0.86792 0.09677 
4.275 526 66.56 30.91 83.17 -0.87522 0.10483 
4.3 515 69.977 31.488 82.122 -0.88241 0.1221 
4.325 515 76.385 31.953 81.416 -0.88801 0.13404 
4.35 503 69.274 32.561 80.18 -0.89392 0.15473 
4.375 503 74.428 32.755 79.297 -0.8942 0.16901 
4.4 494 69.557 32.992 78.096 -0.89378 0.18842 
4.425 494 72.899 33.136 77.013 -0.89205 0.20572 
4.45 494 76.703 33.331 75.805 -0.89016 0.22516 
4.475 485 69.356 33.429 74.724 -0.88704 0.24226 
4.5 485 72.341 33.576 73.527 -0.88371 0.26132 
4.525 485 74.189 33.611 72.538 -0.87952 0.27668 
4.55 485 76.031 33.552 71.7 -0.87461 0.28926 
4.575 485 76.464 33.464 70.822 -0.86895 0.30222 
4.6 485 77.269 33.353 70.033 -0.86328 0.31365 
4.625 485 77.576 33.38 69.281 -0.85943 0.32508 
4.65 485 76.606 33.434 68.615 -0.85629 0.33531 
4.675 485 74.921 33.433 67.994 -0.85259 0.34457 
4.7 485 73.709 33.196 67.681 -0.84766 0.34798 
4.725 485 72.512 33.244 66.976 -0.84394 0.35864 
4.75 485 71.392 33.082 66.691 -0.84005 0.36195 
4.775 485 68.26 33.01 66.268 -0.83642 0.36772 
4.8 485 66.596 33.23 65.6 -0.8349 0.37873 
4.825 485 64.041 33.025 65.245 -0.82992 0.38268 
4.85 485 61.665 33.021 64.654 -0.82588 0.3912 
4.875 496 70.396 33.253 64.17 -0.82547 0.39958 
4.9 496 67.787 33.176 63.815 -0.82201 0.40422 
4.925 496 64.32 33.128 63.371 -0.81825 0.41027 
4.95 496 62.826 32.917 63.078 -0.81349 0.4131 
4.975 496 60.412 32.914 62.639 -0.81026 0.41931 
5 506 66.325 33.054 62.203 -0.8088 0.42638 
5.025 506 64.157 33.088 61.757 -0.80588 0.43288 
5.05 506 60.883 32.855 61.495 -0.80098 0.43499 
5.075 519 69.478 32.961 61.075 -0.7991 0.44158 
5.1 519 65.472 32.942 60.683 -0.79581 0.44691 
5.125 519 61.056 32.892 60.446 -0.79334 0.44983 
5.15 532 69.639 33.153 59.812 -0.79152 0.46046 
5.175 532 64.846 32.845 59.725 -0.78705 0.45945 
5.2 532 61.103 32.85 59.379 -0.78431 0.46423 
5.225 545 67.537 32.854 59.052 -0.7817 0.46874 
5.25 545 63.546 32.953 58.552 -0.77879 0.47628 
5.275 556 69.44 33.133 58.066 -0.77688 0.48421 
5.3 556 65.014 32.828 58.006 -0.77269 0.48272 
5.325 556 61.208 32.867 57.531 -0.76914 0.48941 
5.35 569 67.404 32.769 57.471 -0.76744 0.48946 
5.375 569 63.157 32.809 56.744 -0.76165 0.49948 
5.4 569 59.265 32.664 56.604 -0.75867 0.50018 
5.425 585 67.424 32.762 56.382 -0.75791 0.5039 
5.45 585 63.567 32.613 56.175 -0.75429 0.50542 
5.475 585 59.036 32.617 55.746 -0.75053 0.51109 
5.5 603 68.954 32.685 55.13 -0.74581 0.5197 
5.525 603 63.901 32.814 54.827 -0.74458 0.52471 
5.55 616 69.327 32.724 54.524 -0.74073 0.52789 
5.575 616 64.142 32.449 54.559 -0.73777 0.52509 
5.6 616 59.048 32.429 54.109 -0.73338 0.5307 
5.625 635 67.308 32.772 53.324 -0.73007 0.5437 
5.65 635 61.418 32.683 53.104 -0.72694 0.54573 
5.675 651 67.401 32.067 53.646 -0.72468 0.53339 
5.7 651 61.708 32.49 52.556 -0.71944 0.55094 
5.725 666 66.206 32.066 52.993 -0.71855 0.5416 
5.75 666 60.425 32.104 52.6 -0.71527 0.54687 
5.775 685 67.137 32.203 52.117 -0.71182 0.5538 
5.8 700 70.587 32.304 51.759 -0.70953 0.55918 
5.825 700 63.828 32.17 51.442 -0.70485 0.56184 
5.85 717 68.532 32.083 51.263 -0.70208 0.56322 
5.875 717 60.857 31.7 51.315 -0.69798 0.55889 
5.9 737 66.499 31.705 51.334 -0.69822 0.5587 
5.925 737 59.029 31.68 51.392 -0.69848 0.55774 
5.95 757 63.372 31.653 50.279 -0.68718 0.57094 
5.975 776 67.579 31.4 50.536 -0.68665 0.5653 
6 776 60.197 31.475 50.478 -0.68699 0.56676 
6.025 780 55.251 30.637 49.912 -0.6709 0.56471 
6.05 780 49.291 31 50.436 -0.68069 0.56238 
6.075 780 43.916 31.38 49.578 -0.67686 0.57651 
6.1 780 39.752 31.169 49.221 -0.67068 0.57848 
6.125 780 34.932 31.03 49.751 -0.67428 0.57081 
6.15 780 31.423 30.468 49.86 -0.66821 0.56347 
6.175 780 28.676 30.838 49.482 -0.66919 0.57192 
6.2 780 25.433 30.849 49.179 -0.6663 0.57555 
6.225 780 23.296 30.759 48.552 -0.65884 0.58182 
6.25 780 21.018 30.24 50.162 -0.66818 0.55745 
6.275 780 19.105 29.571 50.815 -0.66539 0.54238 
6.3 780 16.95 29.844 50.02 -0.66151 0.55467 
6.325 780 15.454 29.693 50.358 -0.66272 0.54907 
6.35 780 13.649 29.946 49.647 -0.65925 0.56013 
6.375 780 12.098 29.371 50.008 -0.65492 0.54938 
6.4 780 10.754 28.943 50.967 -0.65793 0.53341 
6.425 780 9.502 29.503 51.574 -0.67155 0.53276 
6.45 780 8.266 28.9 52.109 -0.6678 0.51969 
6.475 780 7.391 27.913 51.96 -0.6516 0.50982 
6.5 780 6.554 28.103 51.836 -0.65341 0.51351 

# MINIMA:
0.600 353.0 0.000 0.000 0.000 -0.89420 -0.74100

# MAXIMA:
6.500 2997.2 79.875 35.247 141.824 0.00000 0.58182

# PEAKS:

# END SPECTRUM

