ASCII SCAN ANALOG DATA:			h2_12.sac
DATE:	4/26/2012	TIME:	09:27:11 PM

Number of stored SCA cycles			1
Converted SCA cycle			1

INFO SCAN:		1
Data Titel	Countrate
Data Unit	cps
Scan Titel	Energy
Scan Unit	eV
Comment	
First Mass	-10.00
Scan Width	25
Values/Mass	64
Zoom Start	-10.00
Zoom End	 15.00

INFO ADDI DATA:		1
Title	Mass
Unit	amu
Comment	

Cycle	CycleDate	CycleTime	
1	4/26/2012	09:27:11 PM:72
AddiData	1
2
ScanData	1
 -10.00	31.9898
  -9.98	63.9795
  -9.97	31.9898
  -9.95	0
  -9.94	31.9898
  -9.92	127.959
  -9.91	95.9693
  -9.89	63.9795
  -9.88	95.9693
  -9.86	63.9795
  -9.84	31.9898
  -9.83	63.9795
  -9.81	95.9693
  -9.80	63.9795
  -9.78	63.9795
  -9.77	31.9898
  -9.75	159.949
  -9.73	0
  -9.72	95.9693
  -9.70	63.9795
  -9.69	127.959
  -9.67	95.9693
  -9.66	127.959
  -9.64	191.939
  -9.63	63.9795
  -9.61	95.9693
  -9.59	63.9795
  -9.58	159.949
  -9.56	31.9898
  -9.55	159.949
  -9.53	191.939
  -9.52	223.928
  -9.50	95.9693
  -9.48	223.928
  -9.47	287.908
  -9.45	0
  -9.44	191.939
  -9.42	191.939
  -9.41	255.918
  -9.39	159.949
  -9.38	287.908
  -9.36	191.939
  -9.34	191.939
  -9.33	319.898
  -9.31	223.928
  -9.30	255.918
  -9.28	255.918
  -9.27	191.939
  -9.25	447.857
  -9.23	383.877
  -9.22	383.877
  -9.20	319.898
  -9.19	703.775
  -9.17	255.918
  -9.16	671.785
  -9.14	479.847
  -9.13	575.816
  -9.11	639.795
  -9.09	607.806
  -9.08	479.847
  -9.06	1119.64
  -9.05	767.755
  -9.03	479.847
  -9.02	1023.67
  -9.00	479.847
  -8.98	991.683
  -8.97	927.703
  -8.95	1023.67
  -8.94	735.765
  -8.92	863.724
  -8.91	1183.62
  -8.89	1407.55
  -8.88	1791.43
  -8.86	1343.57
  -8.84	1663.47
  -8.83	1567.5
  -8.81	1279.59
  -8.80	1791.43
  -8.78	1919.39
  -8.77	1823.42
  -8.75	1951.38
  -8.73	2015.36
  -8.72	2271.27
  -8.70	2399.23
  -8.69	1695.46
  -8.67	1983.37
  -8.66	1631.48
  -8.64	1983.37
  -8.63	2175.3
  -8.61	2975.05
  -8.59	2463.21
  -8.58	2655.15
  -8.56	2559.18
  -8.55	2975.05
  -8.53	2975.05
  -8.52	2719.13
  -8.50	2911.07
  -8.48	3294.95
  -8.47	3039.03
  -8.45	3358.93
  -8.44	2719.13
  -8.42	3326.94
  -8.41	3135
  -8.39	3454.9
  -8.38	2975.05
  -8.36	3550.86
  -8.34	3230.97
  -8.33	2847.09
  -8.31	3902.75
  -8.30	3838.77
  -8.28	3326.94
  -8.27	3870.76
  -8.25	4382.6
  -8.23	3742.8
  -8.22	4030.71
  -8.20	4318.62
  -8.19	4030.71
  -8.17	4254.64
  -8.16	4286.63
  -8.14	4062.7
  -8.13	3902.75
  -8.11	4062.7
  -8.09	4222.65
  -8.08	4158.67
  -8.06	4222.65
  -8.05	3966.73
  -8.03	4606.53
  -8.02	3902.75
  -8.00	4478.57
  -7.98	4222.65
  -7.97	3870.76
  -7.95	3742.8
  -7.94	4478.57
  -7.92	4158.67
  -7.91	4350.61
  -7.89	4158.67
  -7.88	3806.78
  -7.86	4158.67
  -7.84	4670.51
  -7.83	3998.72
  -7.81	3966.73
  -7.80	4350.61
  -7.78	4190.66
  -7.77	4510.56
  -7.75	4286.63
  -7.73	4318.62
  -7.72	3678.82
  -7.70	4094.69
  -7.69	3806.78
  -7.67	4190.66
  -7.66	3646.83
  -7.64	3838.77
  -7.63	3902.75
  -7.61	4606.53
  -7.59	3934.74
  -7.58	3966.73
  -7.56	4670.51
  -7.55	5022.39
  -7.53	4606.53
  -7.52	3998.72
  -7.50	4158.67
  -7.48	4990.4
  -7.47	4510.56
  -7.45	4318.62
  -7.44	4894.44
  -7.42	4990.4
  -7.41	5246.32
  -7.39	5118.36
  -7.38	5630.2
  -7.36	5310.3
  -7.34	5854.13
  -7.33	5374.28
  -7.31	5630.2
  -7.30	5182.34
  -7.28	5342.29
  -7.27	4894.44
  -7.25	5790.15
  -7.23	5278.31
  -7.22	5534.23
  -7.20	5342.29
  -7.19	5054.38
  -7.17	6206.02
  -7.16	7709.54
  -7.14	5982.09
  -7.13	6270
  -7.11	6845.81
  -7.09	7261.68
  -7.08	7677.55
  -7.06	7677.55
  -7.05	7581.58
  -7.03	7741.52
  -7.02	8605.25
  -7.00	8477.29
  -6.98	7165.71
  -6.97	8189.38
  -6.95	9149.08
  -6.94	9341.01
  -6.92	9916.83
  -6.91	9916.83
  -6.89	10652.6
  -6.88	10236.7
  -6.86	10684.6
  -6.84	10364.7
  -6.83	11516.3
  -6.81	12699.9
  -6.80	11292.4
  -6.78	12572
  -6.77	12540
  -6.75	12252.1
  -6.73	13435.7
  -6.72	13211.8
  -6.70	14939.2
  -6.69	15195.1
  -6.67	15099.2
  -6.66	16858.6
  -6.64	14907.2
  -6.63	17914.3
  -6.61	16794.6
  -6.59	17978.3
  -6.58	19545.8
  -6.56	18906
  -6.55	19417.8
  -6.53	19033.9
  -6.52	19993.6
  -6.50	18937.9
  -6.48	19577.7
  -6.47	21113.3
  -6.45	21209.2
  -6.44	23064.6
  -6.42	21273.2
  -6.41	22552.8
  -6.39	24792.1
  -6.38	23512.5
  -6.36	24664.1
  -6.34	23640.4
  -6.33	24376.2
  -6.31	25048
  -6.30	24664.1
  -6.28	23128.6
  -6.27	25399.9
  -6.25	25463.9
  -6.23	25527.8
  -6.22	23384.5
  -6.20	26071.7
  -6.19	23416.5
  -6.17	25559.8
  -6.16	24984
  -6.14	23928.3
  -6.13	24504.2
  -6.11	24280.2
  -6.09	23096.6
  -6.08	24600.1
  -6.06	23032.6
  -6.05	24472.2
  -6.03	22968.7
  -6.02	21881
  -6.00	22264.9
  -5.98	20697.4
  -5.97	20505.4
  -5.95	19929.6
  -5.94	19417.8
  -5.92	19481.8
  -5.91	19705.7
  -5.89	17786.3
  -5.88	18362.1
  -5.86	19481.8
  -5.84	17658.4
  -5.83	17914.3
  -5.81	16474.7
  -5.80	16602.7
  -5.78	15994.9
  -5.77	16026.9
  -5.75	15483
  -5.73	15866.9
  -5.72	15994.9
  -5.70	15739
  -5.69	13499.7
  -5.67	13435.7
  -5.66	12891.9
  -5.64	13115.8
  -5.63	12252.1
  -5.61	13051.8
  -5.59	11868.2
  -5.58	12188.1
  -5.56	12827.9
  -5.55	10652.6
  -5.53	10844.5
  -5.52	11196.4
  -5.50	10332.7
  -5.48	9596.93
  -5.47	10332.7
  -5.45	8733.21
  -5.44	9724.89
  -5.42	8669.23
  -5.41	10204.7
  -5.39	7517.6
  -5.38	8477.29
  -5.36	8669.23
  -5.34	7421.63
  -5.33	7133.72
  -5.31	8093.41
  -5.30	7645.56
  -5.28	7741.52
  -5.27	7549.59
  -5.25	6877.8
  -5.23	7165.71
  -5.22	7133.72
  -5.20	7965.45
  -5.19	6877.8
  -5.17	7005.76
  -5.16	6110.05
  -5.14	7069.74
  -5.13	6749.84
  -5.11	6365.96
  -5.09	5534.23
  -5.08	6589.89
  -5.06	6270
  -5.05	6110.05
  -5.03	5822.14
  -5.02	5854.13
  -5.00	6749.84
  -4.98	6110.05
  -4.97	6142.04
  -4.95	6174.03
  -4.94	5854.13
  -4.92	5438.26
  -4.91	5822.14
  -4.89	5182.34
  -4.88	4990.4
  -4.86	5758.16
  -4.84	5694.18
  -4.83	5790.15
  -4.81	5566.22
  -4.80	4926.42
  -4.78	5054.38
  -4.77	5982.09
  -4.75	4894.44
  -4.73	4894.44
  -4.72	5118.36
  -4.70	5342.29
  -4.69	5406.27
  -4.67	5310.3
  -4.66	5406.27
  -4.64	4958.41
  -4.63	5310.3
  -4.61	4830.46
  -4.59	4702.5
  -4.58	5758.16
  -4.56	4542.55
  -4.55	5086.37
  -4.53	5086.37
  -4.52	4990.4
  -4.50	5854.13
  -4.48	4798.47
  -4.47	4734.49
  -4.45	5278.31
  -4.44	4670.51
  -4.42	5246.32
  -4.41	4990.4
  -4.39	4542.55
  -4.38	5182.34
  -4.36	4894.44
  -4.34	5246.32
  -4.33	4638.52
  -4.31	4414.59
  -4.30	4446.58
  -4.28	4830.46
  -4.27	5534.23
  -4.25	4958.41
  -4.23	5022.39
  -4.22	4638.52
  -4.20	4030.71
  -4.19	5214.33
  -4.17	5118.36
  -4.16	5246.32
  -4.14	4798.47
  -4.13	5246.32
  -4.11	5406.27
  -4.09	4830.46
  -4.08	4798.47
  -4.06	4478.57
  -4.05	5150.35
  -4.03	5022.39
  -4.02	5086.37
  -4.00	5790.15
  -3.98	5182.34
  -3.97	4574.54
  -3.95	5054.38
  -3.94	5118.36
  -3.92	5854.13
  -3.91	5694.18
  -3.89	4574.54
  -3.88	5022.39
  -3.86	4990.4
  -3.84	5726.17
  -3.83	5022.39
  -3.81	4798.47
  -3.80	5022.39
  -3.78	5022.39
  -3.77	5406.27
  -3.75	5022.39
  -3.73	5118.36
  -3.72	5342.29
  -3.70	4990.4
  -3.69	5150.35
  -3.67	5502.24
  -3.66	5726.17
  -3.64	5118.36
  -3.63	5214.33
  -3.61	5406.27
  -3.59	4958.41
  -3.58	5022.39
  -3.56	4158.67
  -3.55	5310.3
  -3.53	5054.38
  -3.52	4990.4
  -3.50	6110.05
  -3.48	5118.36
  -3.47	5598.21
  -3.45	5022.39
  -3.44	5534.23
  -3.42	4702.5
  -3.41	4926.42
  -3.39	5918.11
  -3.38	5630.2
  -3.36	5150.35
  -3.34	5118.36
  -3.33	5086.37
  -3.31	5886.12
  -3.30	5726.17
  -3.28	5118.36
  -3.27	4926.42
  -3.25	5726.17
  -3.23	5406.27
  -3.22	5566.22
  -3.20	6110.05
  -3.19	5022.39
  -3.17	5310.3
  -3.16	5694.18
  -3.14	5694.18
  -3.13	4990.4
  -3.11	5758.16
  -3.09	5950.1
  -3.08	5822.14
  -3.06	5438.26
  -3.05	5758.16
  -3.03	5694.18
  -3.02	5854.13
  -3.00	6078.06
  -2.98	5374.28
  -2.97	5310.3
  -2.95	5150.35
  -2.94	6429.94
  -2.92	5982.09
  -2.91	5406.27
  -2.89	5342.29
  -2.88	5758.16
  -2.86	6078.06
  -2.84	6685.86
  -2.83	5822.14
  -2.81	6014.08
  -2.80	5854.13
  -2.78	5374.28
  -2.77	6877.8
  -2.75	5950.1
  -2.73	6174.03
  -2.72	5822.14
  -2.70	6365.96
  -2.69	5246.32
  -2.67	6014.08
  -2.66	7325.66
  -2.64	6717.85
  -2.63	6429.94
  -2.61	7101.73
  -2.59	6877.8
  -2.58	6813.82
  -2.56	6813.82
  -2.55	7197.7
  -2.53	5950.1
  -2.52	7517.6
  -2.50	6845.81
  -2.48	6941.78
  -2.47	6781.83
  -2.45	6589.89
  -2.44	7165.71
  -2.42	7069.74
  -2.41	6813.82
  -2.39	7357.65
  -2.38	7005.76
  -2.36	7421.63
  -2.34	7965.45
  -2.33	6973.77
  -2.31	8637.24
  -2.30	8093.41
  -2.28	7933.46
  -2.27	7325.66
  -2.25	8701.22
  -2.23	9309.02
  -2.22	9724.89
  -2.20	8669.23
  -2.19	8605.25
  -2.17	9181.06
  -2.16	9500.96
  -2.14	10364.7
  -2.13	10236.7
  -2.11	10268.7
  -2.09	9085.1
  -2.08	9980.81
  -2.06	11740.2
  -2.05	9373
  -2.03	10684.6
  -2.02	12060.1
  -2.00	11068.5
  -1.98	11772.2
  -1.97	13307.7
  -1.95	13435.7
  -1.94	13979.5
  -1.92	14235.4
  -1.91	13723.6
  -1.89	13339.7
  -1.88	14939.2
  -1.86	15611
  -1.84	14779.3
  -1.83	13883.6
  -1.81	14491.4
  -1.80	15515
  -1.78	15579
  -1.77	17370.4
  -1.75	18266.2
  -1.73	17786.3
  -1.72	18554.1
  -1.70	17498.4
  -1.69	18969.9
  -1.67	19193.9
  -1.66	19481.8
  -1.64	20537.4
  -1.63	21081.3
  -1.61	21657.1
  -1.59	22424.8
  -1.58	23608.5
  -1.56	23160.6
  -1.55	24024.3
  -1.53	25495.8
  -1.52	24984
  -1.50	27863.1
  -1.48	29750.5
  -1.47	27383.2
  -1.45	29654.5
  -1.44	30934.1
  -1.42	32213.7
  -1.41	31829.8
  -1.39	32181.7
  -1.38	34069.1
  -1.36	33013.4
  -1.34	33845.2
  -1.33	37012.2
  -1.31	37524
  -1.30	39539.4
  -1.28	39027.5
  -1.27	40691
  -1.25	41714.7
  -1.23	41010.9
  -1.22	42514.4
  -1.20	43506.1
  -1.19	46801
  -1.17	45265.5
  -1.16	43826
  -1.14	46545.1
  -1.13	46161.2
  -1.11	48144.6
  -1.09	49008.3
  -1.08	50160
  -1.06	51567.5
  -1.05	53390.9
  -1.03	50927.7
  -1.02	53454.9
  -1.00	53614.9
  -0.98	52879.1
  -0.97	56525.9
  -0.95	55726.2
  -0.94	57037.8
  -0.92	56941.8
  -0.91	59565
  -0.89	60492.7
  -0.88	58477.3
  -0.86	61772.3
  -0.84	60492.7
  -0.83	58477.3
  -0.81	57549.6
  -0.80	59469
  -0.78	63691.6
  -0.77	60620.6
  -0.75	60396.7
  -0.73	61484.3
  -0.72	61292.4
  -0.70	60172.8
  -0.69	59948.8
  -0.67	59437
  -0.66	61388.4
  -0.64	61548.3
  -0.63	61356.4
  -0.61	57965.5
  -0.59	59788.9
  -0.58	58253.4
  -0.56	59501
  -0.55	59405
  -0.53	58381.3
  -0.52	51663.5
  -0.50	55118.4
  -0.48	55854.1
  -0.47	53454.9
  -0.45	55662.2
  -0.44	51791.4
  -0.42	53422.9
  -0.41	53582.9
  -0.39	53550.9
  -0.38	51759.5
  -0.36	51311.6
  -0.34	48816.4
  -0.33	46737.1
  -0.31	49264.3
  -0.30	45969.3
  -0.28	43186.2
  -0.27	45073.6
  -0.25	43890
  -0.23	42802.3
  -0.22	42674.4
  -0.20	38547.7
  -0.19	40787
  -0.17	38963.5
  -0.16	38131.8
  -0.14	35284.7
  -0.13	36724.3
  -0.11	35412.7
  -0.09	33685.2
  -0.08	33493.3
  -0.06	31605.9
  -0.05	32885.5
  -0.03	31382
  -0.02	31445.9
   0.00	31062.1
   0.02	29302.6
   0.03	28055
   0.05	28694.8
   0.06	26231.6
   0.08	26583.5
   0.09	26199.6
   0.11	27895.1
   0.13	26327.6
   0.14	24824.1
   0.16	24664.1
   0.17	21657.1
   0.19	22520.8
   0.20	22296.9
   0.22	21305.2
   0.23	21881
   0.25	22009
   0.27	20089.6
   0.28	18074.2
   0.30	18618
   0.31	20697.4
   0.33	19993.6
   0.34	17338.5
   0.36	17434.4
   0.38	16538.7
   0.39	16794.6
   0.41	16666.7
   0.42	16634.7
   0.44	15323.1
   0.45	14459.4
   0.47	14971.2
   0.48	14907.2
   0.50	14043.5
   0.52	14747.3
   0.53	13915.6
   0.55	13563.7
   0.56	14395.4
   0.58	12540
   0.59	13243.8
   0.61	12699.9
   0.63	11644.3
   0.64	11324.4
   0.66	11772.2
   0.67	11932.2
   0.69	12987.8
   0.70	11772.2
   0.72	10748.6
   0.73	11100.5
   0.75	10012.8
   0.77	11900.2
   0.78	11196.4
   0.80	9596.93
   0.81	10460.7
   0.83	10236.7
   0.84	10428.7
   0.86	9500.96
   0.88	9884.84
   0.89	8541.27
   0.91	9309.02
   0.92	8317.34
   0.94	9373
   0.95	9628.92
   0.97	9213.05
   0.98	9820.86
   1.00	8989.13
   1.02	8797.19
   1.03	8861.17
   1.05	8125.4
   1.06	7901.47
   1.08	7965.45
   1.09	9021.12
   1.11	8765.2
   1.13	8477.29
   1.14	8669.23
   1.16	7965.45
   1.17	7549.59
   1.19	7965.45
   1.20	7549.59
   1.22	8189.38
   1.23	8125.4
   1.25	8541.27
   1.27	8413.31
   1.28	8797.19
   1.30	7645.56
   1.31	7549.59
   1.33	8125.4
   1.34	6749.84
   1.36	7613.57
   1.38	7869.48
   1.39	7325.66
   1.41	7517.6
   1.42	6525.91
   1.44	7005.76
   1.45	7005.76
   1.47	7613.57
   1.48	7325.66
   1.50	7997.44
   1.52	8829.18
   1.53	6717.85
   1.55	6877.8
   1.56	7613.57
   1.58	7165.71
   1.59	7709.54
   1.61	7901.47
   1.63	7581.58
   1.64	7485.61
   1.66	6941.78
   1.67	7997.44
   1.69	6333.98
   1.70	7773.51
   1.72	7837.49
   1.73	7421.63
   1.75	6685.86
   1.77	7069.74
   1.78	7325.66
   1.80	6973.77
   1.81	7645.56
   1.83	7325.66
   1.84	8221.37
   1.86	7197.7
   1.88	6046.07
   1.89	6078.06
   1.91	6845.81
   1.92	7325.66
   1.94	7389.64
   1.95	7421.63
   1.97	5822.14
   1.98	7933.46
   2.00	6046.07
   2.02	7101.73
   2.03	7773.51
   2.05	7197.7
   2.06	8413.31
   2.08	6781.83
   2.09	7485.61
   2.11	7453.62
   2.13	6717.85
   2.14	8285.35
   2.16	7069.74
   2.17	6749.84
   2.19	7101.73
   2.20	7805.5
   2.22	6781.83
   2.23	7933.46
   2.25	7325.66
   2.27	7293.67
   2.28	7133.72
   2.30	7197.7
   2.31	6717.85
   2.33	7357.65
   2.34	8733.21
   2.36	7613.57
   2.38	7677.55
   2.39	6781.83
   2.41	7453.62
   2.42	7453.62
   2.44	8029.43
   2.45	6941.78
   2.47	8221.37
   2.48	7069.74
   2.50	7581.58
   2.52	7741.52
   2.53	7581.58
   2.55	8317.34
   2.56	7165.71
   2.58	9213.05
   2.59	7805.5
   2.61	7837.49
   2.63	7197.7
   2.64	7645.56
   2.66	7517.6
   2.67	7773.51
   2.69	7837.49
   2.70	7261.68
   2.72	7229.69
   2.73	9149.08
   2.75	8477.29
   2.77	7869.48
   2.78	7549.59
   2.80	7773.51
   2.81	7933.46
   2.83	8829.18
   2.84	8733.21
   2.86	8701.22
   2.88	8669.23
   2.89	8669.23
   2.91	9309.02
   2.92	9404.99
   2.94	8573.26
   2.95	8957.14
   2.97	8797.19
   2.98	8957.14
   3.00	9021.12
   3.02	8509.28
   3.03	8861.17
   3.05	10268.7
   3.06	10140.8
   3.08	9756.88
   3.09	9884.84
   3.11	10204.7
   3.13	9181.06
   3.14	11004.5
   3.16	10748.6
   3.17	10556.6
   3.19	11036.5
   3.20	11516.3
   3.22	11676.3
   3.23	11356.4
   3.25	12763.9
   3.27	12540
   3.28	12636
   3.30	12284.1
   3.31	13659.6
   3.33	13019.8
   3.34	13883.6
   3.36	16026.9
   3.38	13467.7
   3.39	14779.3
   3.41	15483
   3.42	15419.1
   3.44	15355.1
   3.45	16570.7
   3.47	17018.6
   3.48	17050.5
   3.50	17978.3
   3.52	18170.2
   3.53	19385.8
   3.55	18554.1
   3.56	19865.6
   3.58	20857.3
   3.59	20633.4
   3.61	23128.6
   3.63	22712.7
   3.64	21913
   3.66	23224.6
   3.67	25048
   3.69	25591.8
   3.70	25271.9
   3.72	27383.2
   3.73	28854.8
   3.75	30358.3
   3.77	30838.1
   3.78	29622.5
   3.80	32693.5
   3.81	33141.4
   3.83	33973.1
   3.84	34037.1
   3.86	36852.2
   3.88	37907.9
   3.89	38835.6
   3.91	39539.4
   3.92	42386.4
   3.94	43602.1
   3.95	41106.9
   3.97	45649.4
   3.98	44305.8
   4.00	48528.5
   4.02	49232.3
   4.03	51535.5
   4.05	53039
   4.06	52207.3
   4.08	54830.5
   4.09	55790.2
   4.11	57421.6
   4.13	59373
   4.14	62827.9
   4.16	62348.1
   4.17	62859.9
   4.19	62316.1
   4.20	66538.7
   4.22	68810
   4.23	70761.4
   4.25	73576.5
   4.27	73512.5
   4.28	71209.2
   4.30	78215
   4.31	80454.3
   4.33	82565.6
   4.34	79622.5
   4.36	83429.3
   4.38	83525.3
   4.39	88067.8
   4.41	88003.9
   4.42	89923.3
   4.44	92226.5
   4.45	93794
   4.47	94369.8
   4.48	93442.1
   4.50	97376.9
   4.52	97664.8
   4.53	98048.7
   4.55	101408
   4.56	98080.6
   4.58	99520.2
   4.59	96929
   4.61	108221
   4.63	101759
   4.64	100672
   4.66	102815
   4.67	104990
   4.69	102175
   4.70	104894
   4.72	107997
   4.73	105950
   4.75	104607
   4.77	107997
   4.78	102271
   4.80	107870
   4.81	106302
   4.83	105470
   4.84	101823
   4.86	102911
   4.88	103935
   4.89	102879
   4.91	104223
   4.92	101887
   4.94	98400.5
   4.95	99360.2
   4.97	101280
   4.98	96321.2
   5.00	95777.4
   5.02	94593.8
   5.03	94081.9
   5.05	96769.1
   5.06	88451.7
   5.08	92034.6
   5.09	87684
   5.11	86404.4
   5.13	87204.1
   5.14	86340.4
   5.16	86628.3
   5.17	82565.6
   5.19	83461.3
   5.20	82053.8
   5.22	80166.4
   5.23	79270.7
   5.25	74216.3
   5.27	75751.8
   5.28	72136.9
   5.30	74408.2
   5.31	70281.5
   5.33	71305.2
   5.34	64811.3
   5.36	65547
   5.38	64203.5
   5.39	62348.1
   5.41	63627.7
   5.42	64555.4
   5.44	57421.6
   5.45	55822.2
   5.47	54478.6
   5.48	53486.9
   5.50	54190.7
   5.52	51855.4
   5.53	52879.1
   5.55	49264.3
   5.56	47025
   5.58	45329.5
   5.59	44849.7
   5.61	42738.3
   5.63	41426.8
   5.64	40371.1
   5.66	39123.5
   5.67	38867.6
   5.69	37620
   5.70	37076.1
   5.72	34868.9
   5.73	35476.7
   5.75	34932.8
   5.77	31286
   5.78	31318
   5.80	31030.1
   5.81	32405.6
   5.83	28502.9
   5.84	30486.3
   5.86	28758.8
   5.88	26967.4
   5.89	27383.2
   5.91	25303.9
   5.92	24664.1
   5.94	24312.2
   5.95	23800.4
   5.97	22392.8
   5.98	22200.9
   6.00	21177.2
   6.02	19449.8
   6.03	21561.1
   6.05	21561.1
   6.06	20057.6
   6.08	18554.1
   6.09	19481.8
   6.11	18554.1
   6.13	18106.2
   6.14	17466.4
   6.16	18362.1
   6.17	18074.2
   6.19	15994.9
   6.20	15707
   6.22	16218.8
   6.23	15195.1
   6.25	16570.7
   6.27	14939.2
   6.28	15099.2
   6.30	14043.5
   6.31	14235.4
   6.33	13947.5
   6.34	14011.5
   6.36	13051.8
   6.38	13435.7
   6.39	13947.5
   6.41	12540
   6.42	12124.1
   6.44	12060.1
   6.45	13627.6
   6.47	12827.9
   6.48	12508
   6.50	13403.7
   6.52	13019.8
   6.53	12316.1
   6.55	12955.9
   6.56	13243.8
   6.58	12156.1
   6.59	12763.9
   6.61	12668
   6.63	12795.9
   6.64	11004.5
   6.66	12699.9
   6.67	12316.1
   6.69	11516.3
   6.70	10908.5
   6.72	12060.1
   6.73	12252.1
   6.75	13051.8
   6.77	12923.9
   6.78	12188.1
   6.80	12955.9
   6.81	12987.8
   6.83	13915.6
   6.84	14299.4
   6.86	12316.1
   6.88	13691.6
   6.89	14203.5
   6.91	14971.2
   6.92	14459.4
   6.94	14459.4
   6.95	15643
   6.97	16346.8
   6.98	15131.2
   7.00	16250.8
   7.02	17338.5
   7.03	17082.5
   7.05	17818.3
   7.06	18458.1
   7.08	19129.9
   7.09	18746
   7.11	20825.3
   7.13	20697.4
   7.14	19481.8
   7.16	22424.8
   7.17	23448.5
   7.19	22968.7
   7.20	23128.6
   7.22	25879.7
   7.23	25239.9
   7.25	27287.3
   7.27	28023
   7.28	29526.6
   7.30	30422.3
   7.31	31222
   7.33	31541.9
   7.34	31573.9
   7.36	35956.5
   7.38	37044.2
   7.39	33909.2
   7.41	38323.7
   7.42	37204.1
   7.44	39667.3
   7.45	39219.5
   7.47	43794
   7.48	44369.8
   7.50	43282.2
   7.52	49776.1
   7.53	47152.9
   7.55	49552.2
   7.56	52559.2
   7.58	54510.6
   7.59	54830.5
   7.61	55214.3
   7.63	57517.6
   7.64	58637.3
   7.66	60684.6
   7.67	61964.2
   7.69	61868.2
   7.70	65259.1
   7.72	65067.2
   7.73	68170.2
   7.75	70153.6
   7.77	71081.3
   7.78	74184.3
   7.80	72776.7
   7.81	75879.7
   7.83	76135.7
   7.84	77927.1
   7.86	80390.3
   7.88	81158.1
   7.89	80518.3
   7.91	82597.6
   7.92	82085.8
   7.94	82725.6
   7.95	89123.5
   7.97	85668.6
   7.98	87396.1
   8.00	87236.1
   8.02	89667.3
   8.03	90179.2
   8.05	91746.7
   8.06	91234.8
   8.08	87172.1
   8.09	93730
   8.11	95361.5
   8.13	93154.2
   8.14	91874.6
   8.16	92642.4
   8.17	89987.2
   8.19	94593.8
   8.20	94433.8
   8.22	95233.6
   8.23	94753.7
   8.25	90403.1
   8.27	96481.2
   8.28	93474.1
   8.30	92002.6
   8.31	93538.1
   8.33	93442.1
   8.34	92866.3
   8.36	93250.2
   8.38	89187.5
   8.39	90659
   8.41	94785.7
   8.42	91970.6
   8.44	89539.4
   8.45	91842.6
   8.47	90083.2
   8.48	87332.1
   8.50	94305.9
   8.52	90083.2
   8.53	90371.1
   8.55	89443.4
   8.56	88355.8
   8.58	89347.4
   8.59	90755
   8.61	92546.4
   8.63	92962.3
   8.64	97792.7
   8.66	94529.8
   8.67	93538.1
   8.69	94785.7
   8.70	96161.3
   8.72	95073.6
   8.73	97728.8
   8.75	97184.9
   8.77	96289.2
   8.78	102399
   8.80	102655
   8.81	103167
   8.83	102623
   8.84	106270
   8.86	106494
   8.88	103039
   8.89	109181
   8.91	108317
   8.92	112156
   8.94	110717
   8.95	120186
   8.97	121497
   8.98	123257
   9.00	123513
   9.02	124088
   9.03	126264
   9.05	129463
   9.06	130422
   9.08	137332
   9.09	140915
   9.11	139475
   9.13	149392
   9.14	150736
   9.16	152463
   9.17	162732
   9.19	167850
   9.20	173001
   9.22	179015
   9.23	187844
   9.25	191715
   9.27	196353
   9.28	206846
   9.30	216411
   9.31	226200
   9.33	227671
   9.34	234933
   9.36	242962
   9.38	254831
   9.39	261676
   9.41	270953
   9.42	287332
   9.44	289667
   9.45	298976
   9.47	304543
   9.48	312764
   9.50	316283
   9.52	322201
   9.53	324504
   9.55	331254
   9.56	344018
   9.58	340563
   9.59	347281
   9.61	348561
   9.63	354735
   9.64	354063
   9.66	357070
   9.67	351568
   9.69	357070
   9.70	354895
   9.72	354959
   9.73	350640
   9.75	354191
   9.77	355854
   9.78	354287
   9.80	350480
   9.81	348721
   9.83	343570
   9.84	338356
   9.86	339092
   9.88	337076
   9.89	329303
   9.91	319706
   9.92	322777
   9.94	316763
   9.95	314843
   9.97	297057
   9.98	302175
  10.00	286117
  10.02	284261
  10.03	275976
  10.05	271273
  10.06	254927
  10.08	249456
  10.09	244210
  10.11	243186
  10.13	233109
  10.14	227543
  10.16	226648
  10.17	213372
  10.19	217147
  10.20	214555
  10.22	202431
  10.23	192323
  10.25	193602
  10.27	195362
  10.28	182374
  10.30	179367
  10.31	171529
  10.33	174984
  10.34	171017
  10.36	168970
  10.38	166059
  10.39	161900
  10.41	160877
  10.42	159373
  10.44	155502
  10.45	151568
  10.47	153679
  10.48	145649
  10.50	142834
  10.52	143890
  10.53	142738
  10.55	140819
  10.56	137300
  10.58	141843
  10.59	135861
  10.61	134741
  10.63	131638
  10.64	128151
  10.66	133141
  10.67	129367
  10.69	133429
  10.70	130646
  10.72	128375
  10.73	124504
  10.75	124280
  10.77	124600
  10.78	123864
  10.80	123161
  10.81	126520
  10.83	123513
  10.84	119386
  10.86	116987
  10.88	120058
  10.89	119322
  10.91	121017
  10.92	120793
  10.94	116411
  10.95	114619
  10.97	114587
  10.98	113532
  11.00	115451
  11.02	120026
  11.03	118330
  11.05	114172
  11.06	119642
  11.08	114587
  11.09	117338
  11.11	114683
  11.13	117370
  11.14	115227
  11.16	118074
  11.17	117243
  11.19	118266
  11.20	115483
  11.22	116955
  11.23	121337
  11.25	116283
  11.27	116539
  11.28	113052
  11.30	113948
  11.31	114331
  11.33	118458
  11.34	116539
  11.36	113916
  11.38	119738
  11.39	111708
  11.41	114875
  11.42	112316
  11.44	111708
  11.45	111644
  11.47	112444
  11.48	111676
  11.50	113180
  11.52	107997
  11.53	112188
  11.55	107774
  11.56	108093
  11.58	108157
  11.59	108477
  11.61	108317
  11.63	104031
  11.64	105342
  11.66	110269
  11.67	105502
  11.69	105854
  11.70	102911
  11.72	103711
  11.73	103839
  11.75	105790
  11.77	104191
  11.78	103935
  11.80	100800
  11.81	100320
  11.83	100704
  11.84	103359
  11.86	97728.8
  11.88	104511
  11.89	98400.5
  11.91	103583
  11.92	101568
  11.94	102047
  11.95	103615
  11.97	103999
  11.98	103999
  12.00	104703
  12.02	105278
  12.03	106718
  12.05	107422
  12.06	107838
  12.08	108957
  12.09	111388
  12.11	111580
  12.13	111836
  12.14	111836
  12.16	115963
  12.17	112828
  12.19	116091
  12.20	109053
  12.22	110525
  12.23	108861
  12.25	111005
  12.27	107902
  12.28	106814
  12.30	104894
  12.31	100832
  12.33	97121
  12.34	96161.3
  12.36	95489.5
  12.38	93922
  12.39	88195.8
  12.41	81925.8
  12.42	78087
  12.44	73096.6
  12.45	70217.6
  12.47	64779.3
  12.48	64011.5
  12.50	58925.2
  12.52	53710.8
  12.53	49936
  12.55	47888.7
  12.56	43474.1
  12.58	40435.1
  12.59	34644.9
  12.61	32629.6
  12.63	28662.8
  12.64	26615.5
  12.66	24600.1
  12.67	22232.9
  12.69	19609.7
  12.70	17434.4
  12.72	15802.9
  12.73	13371.7
  12.75	12923.9
  12.77	11164.4
  12.78	8413.31
  12.80	7261.68
  12.81	7549.59
  12.83	5694.18
  12.84	4862.45
  12.86	4222.65
  12.88	3071.02
  12.89	2623.16
  12.91	2111.32
  12.92	1663.47
  12.94	1279.59
  12.95	1183.62
  12.97	671.785
  12.98	703.775
  13.00	255.918
  13.02	127.959
  13.03	127.959
  13.05	63.9795
  13.06	159.949
  13.08	127.959
  13.09	95.9693
  13.11	31.9898
  13.13	31.9898
  13.14	0
  13.16	0
  13.17	0
  13.19	31.9898
  13.20	0
  13.22	0
  13.23	0
  13.25	0
  13.27	31.9898
  13.28	0
  13.30	0
  13.31	0
  13.33	0
  13.34	0
  13.36	0
  13.38	0
  13.39	0
  13.41	0
  13.42	0
  13.44	0
  13.45	0
  13.47	0
  13.48	0
  13.50	0
  13.52	0
  13.53	0
  13.55	0
  13.56	0
  13.58	0
  13.59	0
  13.61	0
  13.63	0
  13.64	0
  13.66	0
  13.67	0
  13.69	0
  13.70	0
  13.72	0
  13.73	0
  13.75	0
  13.77	0
  13.78	0
  13.80	0
  13.81	0
  13.83	0
  13.84	0
  13.86	0
  13.88	0
  13.89	0
  13.91	0
  13.92	0
  13.94	0
  13.95	0
  13.97	0
  13.98	0
  14.00	0
  14.02	0
  14.03	0
  14.05	0
  14.06	0
  14.08	0
  14.09	0
  14.11	0
  14.13	0
  14.14	0
  14.16	0
  14.17	0
  14.19	0
  14.20	0
  14.22	0
  14.23	0
  14.25	0
  14.27	0
  14.28	0
  14.30	0
  14.31	0
  14.33	0
  14.34	0
  14.36	0
  14.38	0
  14.39	0
  14.41	0
  14.42	0
  14.44	0
  14.45	0
  14.47	0
  14.48	0
  14.50	0
  14.52	0
  14.53	0
  14.55	0
  14.56	0
  14.58	0
  14.59	0
  14.61	0
  14.63	0
  14.64	0
  14.66	0
  14.67	0
  14.69	0
  14.70	0
  14.72	0
  14.73	0
  14.75	0
  14.77	0
  14.78	0
  14.80	0
  14.81	0
  14.83	0
  14.84	0
  14.86	0
  14.88	0
  14.89	0
  14.91	0
  14.92	0
  14.94	0
  14.95	0
  14.97	0
  14.98	0
?	?
