## SPECTRUM TYPE:
Spectroscopic

## DATE:
11/9/2011

## COMMENTS:

## NUMBER OF SPECTRUM:
5

## ELLIPSOMETRIC CONFIGURATION:
+90.00 øModulator
-45.00 øAnalyser

## UNIT:
eV


# SPECTRUM:
1

# START TIME:
15:16:59

# END TIME:
15:29:11

# THETA ANGLE:
0.00 ø

# INCIDENCE ANGLE:
55.00 ø

# ACCUMULATION NUMBER:
1

# ELLIPSOMETRIC CONFIGURATION:
+90.00 øModulator
-45.00 øAnalyser

# INTEGRATION TIME:
500 ms

# FIRST POINT:
0.6000 eV

# LAST POINT:
6.5000 eV

# INCREMENT:
0.0250 eV

# NUMBER OF POINTS:
237

# DATA:
eV Hv S0 Psi Delta Is Ic 
0.600 3898.9 58.262 23.579 212.529 0.39428 -0.61820 
0.625 3600.5 78.894 24.368 212.420 0.40299 -0.63452 
0.650 3403.6 79.574 25.120 211.057 0.39659 -0.65853 
0.675 3302.0 78.278 25.816 209.759 0.38916 -0.68065 
0.700 2501.9 79.492 26.045 206.899 0.35695 -0.70361 
0.725 2101.9 79.666 26.428 203.845 0.32224 -0.72907 
0.750 2000.3 79.295 26.709 200.507 0.28130 -0.75212 
0.775 1600.2 70.543 26.892 196.939 0.23506 -0.77180 
0.800 1098.6 65.681 26.968 193.219 0.18485 -0.78693 
0.825 1397.0 62.714 27.200 189.146 0.12924 -0.80276 
0.850 1397.0 61.223 27.177 185.214 0.07384 -0.80927 
0.875 1098.6 76.994 27.310 181.104 0.01570 -0.81518 
0.900 1200.2 66.131 27.259 176.946 -0.04339 -0.81315 
0.925 1301.8 65.542 27.312 172.864 -0.10129 -0.80905 
0.950 1403.4 71.743 27.189 168.725 -0.15893 -0.79719 
0.975 1104.9 77.720 27.080 164.537 -0.21613 -0.78131 
1.000 1301.8 61.933 27.009 160.687 -0.26762 -0.76366 
1.025 1301.8 65.812 26.840 156.788 -0.31756 -0.74050 
1.050 901.7 67.397 26.555 152.904 -0.36430 -0.71202 
1.075 1301.8 64.922 26.366 149.453 -0.40447 -0.68535 
1.100 1301.8 69.629 26.173 145.970 -0.44307 -0.65613 
1.125 1301.8 68.472 25.777 141.961 -0.48260 -0.61683 
1.150 1301.8 76.779 25.204 137.149 -0.52408 -0.56495 
1.175 1301.8 65.057 24.620 128.464 -0.59309 -0.47116 
1.200 1600.2 61.814 25.204 112.962 -0.70954 -0.30062 
1.225 1403.4 73.914 28.062 94.617 -0.82755 -0.06684 
1.250 1003.3 71.349 32.479 76.924 -0.88251 0.20497 
1.275 1803.4 60.876 37.247 57.796 -0.81536 0.51353 
1.300 2305.1 62.051 39.806 29.655 -0.48666 0.85478 
1.325 3206.8 61.865 38.953 356.807 0.05446 0.97629 
1.350 1809.8 76.195 40.646 317.942 0.66217 0.73390 
1.375 2209.8 62.648 37.069 293.757 0.88041 0.38752 
1.400 1809.8 75.550 32.988 272.688 0.91237 0.04283 
1.425 3911.6 35.361 29.908 259.880 0.85096 -0.15189 
1.450 3911.6 19.512 28.070 247.896 0.76937 -0.31246 
1.475 780.0 76.382 26.297 237.703 0.67145 -0.42443 
1.500 565.0 62.659 26.366 230.493 0.61402 -0.50627 
1.525 673.0 75.247 26.011 223.036 0.53795 -0.57615 
1.550 587.0 59.707 25.875 216.824 0.47068 -0.62863 
1.575 636.0 64.620 25.827 210.506 0.39812 -0.67573 
1.600 636.0 71.201 25.928 204.487 0.32598 -0.71573 
1.625 575.0 74.886 25.938 199.210 0.25884 -0.74286 
1.650 575.0 58.602 26.010 193.503 0.18405 -0.76643 
1.675 575.0 71.967 26.030 188.204 0.11254 -0.78058 
1.700 560.0 70.826 26.047 182.936 0.04042 -0.78798 
1.725 550.0 70.231 25.986 177.720 -0.03133 -0.78708 
1.750 539.0 69.905 25.861 172.472 -0.10284 -0.77826 
1.775 529.0 69.912 25.679 167.237 -0.17255 -0.76176 
1.800 511.0 69.741 25.429 161.878 -0.24124 -0.73712 
1.825 511.0 74.511 25.185 156.632 -0.30547 -0.70700 
1.850 502.0 71.009 24.841 150.965 -0.37006 -0.66665 
1.875 502.0 74.788 24.466 145.334 -0.42883 -0.62009 
1.900 492.0 68.693 24.021 139.108 -0.48681 -0.56215 
1.925 492.0 71.456 23.589 132.527 -0.54052 -0.49578 
1.950 492.0 72.349 23.120 125.285 -0.58956 -0.41721 
1.975 492.0 71.033 22.705 117.042 -0.63428 -0.32377 
2.000 492.0 67.359 22.289 107.472 -0.66951 -0.21074 
2.025 492.0 58.924 21.844 95.058 -0.68803 -0.06089 
2.050 512.0 66.821 21.426 79.901 -0.66956 0.11925 
2.075 512.0 65.518 20.793 59.681 -0.57296 0.33507 
2.100 512.0 59.980 19.885 33.829 -0.35613 0.53140 
2.125 522.0 66.836 18.869 3.572 -0.03813 0.61087 
2.150 522.0 70.872 18.149 331.037 0.28666 0.51795 
2.175 510.0 68.920 17.683 301.003 0.49610 0.29812 
2.200 498.0 69.188 17.717 277.638 0.57461 0.07706 
2.225 484.0 68.716 17.994 258.821 0.57647 -0.11392 
2.250 471.0 69.114 18.431 244.111 0.53970 -0.26194 
2.275 461.0 71.357 18.861 232.708 0.48675 -0.37069 
2.300 448.0 68.250 19.280 223.014 0.42523 -0.45577 
2.325 440.0 69.460 19.681 214.667 0.36074 -0.52162 
2.350 440.0 78.211 19.993 207.691 0.29862 -0.56901 
2.375 426.0 68.314 20.306 201.643 0.24008 -0.60503 
2.400 426.0 75.123 20.495 195.805 0.17865 -0.63113 
2.425 415.0 68.817 20.662 190.362 0.11876 -0.64953 
2.450 407.0 71.480 20.725 185.462 0.06300 -0.65896 
2.475 407.0 77.833 20.653 180.877 0.01010 -0.66001 
2.500 432.0 66.303 20.577 176.249 -0.04305 -0.65667 
2.525 432.0 71.320 20.378 171.802 -0.09309 -0.64616 
2.550 432.0 69.078 20.086 167.507 -0.13954 -0.62980 
2.575 424.0 67.344 19.712 163.412 -0.18130 -0.60864 
2.600 424.0 60.955 19.261 159.194 -0.22123 -0.58221 
2.625 424.0 75.215 18.721 155.105 -0.25592 -0.55146 
2.650 415.0 68.794 18.066 151.149 -0.28452 -0.51646 
2.675 415.0 60.112 17.372 147.427 -0.30683 -0.48028 
2.700 426.0 65.569 16.452 143.474 -0.32331 -0.43653 
2.725 435.0 70.206 15.350 139.439 -0.33199 -0.38787 
2.750 435.0 72.425 14.152 135.686 -0.33124 -0.33927 
2.775 435.0 61.514 12.928 132.954 -0.31919 -0.29717 
2.800 435.0 58.832 11.526 130.664 -0.29703 -0.25516 
2.825 447.0 69.686 9.913 129.570 -0.26144 -0.21605 
2.850 447.0 65.482 8.312 130.951 -0.21607 -0.18750 
2.875 447.0 63.619 6.881 136.432 -0.16395 -0.17236 
2.900 447.0 61.993 5.890 146.768 -0.11189 -0.17078 
2.925 447.0 61.494 5.502 160.860 -0.06259 -0.18034 
2.950 447.0 63.174 5.949 175.438 -0.01640 -0.20552 
2.975 447.0 61.850 6.845 184.501 0.01857 -0.23593 
3.000 447.0 61.743 7.970 189.188 0.04385 -0.27111 
3.025 447.0 62.656 9.099 190.501 0.05691 -0.30706 
3.050 447.0 61.971 10.134 190.227 0.06150 -0.34092 
3.075 447.0 62.449 11.087 188.981 0.05892 -0.37279 
3.100 437.0 70.473 11.933 187.035 0.04955 -0.40156 
3.125 437.0 72.530 12.660 184.910 0.03661 -0.42611 
3.150 437.0 71.420 13.262 182.606 0.02031 -0.44612 
3.175 437.0 70.599 13.778 180.088 0.00071 -0.46260 
3.200 437.0 69.764 14.168 177.704 -0.01901 -0.47427 
3.225 437.0 68.686 14.448 175.257 -0.03995 -0.48156 
3.250 437.0 68.701 14.691 172.847 -0.06109 -0.48683 
3.275 437.0 67.436 14.846 170.264 -0.08376 -0.48821 
3.300 437.0 64.480 14.885 167.905 -0.10404 -0.48551 
3.325 437.0 59.935 14.866 165.474 -0.12439 -0.48010 
3.350 449.0 68.905 14.759 163.135 -0.14294 -0.47150 
3.375 449.0 69.983 14.565 161.219 -0.15672 -0.46087 
3.400 449.0 70.899 14.286 159.454 -0.16785 -0.44783 
3.425 449.0 69.906 14.008 158.107 -0.17514 -0.43583 
3.450 449.0 68.706 13.684 157.017 -0.17950 -0.42321 
3.475 449.0 66.723 13.368 156.189 -0.18163 -0.41158 
3.500 449.0 64.389 13.065 155.466 -0.18288 -0.40066 
3.525 449.0 61.573 12.760 155.285 -0.18014 -0.39137 
3.550 449.0 59.486 12.500 155.289 -0.17667 -0.38391 
3.575 460.0 68.770 12.276 155.398 -0.17299 -0.37781 
3.600 460.0 66.973 12.065 155.668 -0.16844 -0.37250 
3.625 460.0 64.839 11.898 156.126 -0.16330 -0.36896 
3.650 460.0 63.882 11.747 156.765 -0.15727 -0.36633 
3.675 460.0 63.436 11.666 157.453 -0.15186 -0.36577 
3.700 460.0 62.788 11.571 158.089 -0.14666 -0.36463 
3.725 460.0 62.038 11.607 158.731 -0.14299 -0.36732 
3.750 460.0 60.717 11.593 159.487 -0.13797 -0.36876 
3.775 469.0 69.529 11.641 160.006 -0.13514 -0.37143 
3.800 469.0 67.086 11.725 160.424 -0.13334 -0.37495 
3.825 469.0 63.772 11.794 160.873 -0.13112 -0.37807 
3.850 469.0 61.238 11.866 161.145 -0.13006 -0.38085 
3.875 482.0 69.523 11.971 161.072 -0.13164 -0.38387 
3.900 482.0 63.462 12.047 161.051 -0.13257 -0.38612 
3.925 482.0 59.353 12.159 160.953 -0.13439 -0.38925 
3.950 494.0 67.112 12.264 160.888 -0.13592 -0.39225 
3.975 494.0 62.883 12.341 160.529 -0.13919 -0.39371 
4.000 505.0 69.373 12.421 160.220 -0.14217 -0.39533 
4.025 505.0 65.759 12.496 159.974 -0.14468 -0.39694 
4.050 505.0 62.498 12.566 159.654 -0.14767 -0.39821 
4.075 516.0 68.813 12.580 159.166 -0.15121 -0.39735 
4.100 516.0 64.415 12.638 158.744 -0.15480 -0.39794 
4.125 516.0 61.204 12.689 158.352 -0.15810 -0.39835 
4.150 528.0 68.609 12.724 158.116 -0.16016 -0.39872 
4.175 528.0 63.726 12.716 157.555 -0.16395 -0.39690 
4.200 528.0 61.593 12.679 157.008 -0.16729 -0.39426 
4.225 538.0 68.686 12.686 156.749 -0.16916 -0.39370 
4.250 538.0 66.161 12.715 156.319 -0.17247 -0.39326 
4.275 538.0 62.550 12.710 156.057 -0.17421 -0.39232 
4.300 557.0 66.336 12.618 155.777 -0.17493 -0.38881 
4.325 557.0 70.023 12.589 155.285 -0.17787 -0.38645 
4.350 557.0 73.512 12.547 155.042 -0.17896 -0.38451 
4.375 557.0 75.066 12.423 154.681 -0.17970 -0.37983 
4.400 557.0 77.564 12.482 154.739 -0.18010 -0.38168 
4.425 546.0 67.635 12.456 154.618 -0.18057 -0.38057 
4.450 546.0 68.749 12.527 154.568 -0.18185 -0.38243 
4.475 546.0 69.839 12.424 154.491 -0.18096 -0.37925 
4.500 546.0 69.875 12.340 154.022 -0.18290 -0.37536 
4.525 546.0 68.623 12.390 154.192 -0.18247 -0.37732 
4.550 546.0 68.779 12.361 154.083 -0.18279 -0.37617 
4.575 546.0 68.412 12.332 153.976 -0.18309 -0.37499 
4.600 546.0 67.684 12.336 153.832 -0.18408 -0.37463 
4.625 546.0 66.293 12.343 153.981 -0.18321 -0.37531 
4.650 546.0 64.518 12.404 153.993 -0.18398 -0.37710 
4.675 546.0 62.874 12.292 153.672 -0.18450 -0.37286 
4.700 546.0 61.048 12.307 153.569 -0.18539 -0.37295 
4.725 558.0 70.267 12.246 153.505 -0.18494 -0.37102 
4.750 558.0 69.154 12.372 153.794 -0.18484 -0.37554 
4.775 558.0 66.057 12.325 153.495 -0.18613 -0.37323 
4.800 558.0 63.777 12.423 153.594 -0.18687 -0.37634 
4.825 558.0 62.148 12.399 153.399 -0.18780 -0.37503 
4.850 558.0 59.576 12.409 153.062 -0.19016 -0.37421 
4.875 571.0 69.009 12.464 153.196 -0.19006 -0.37620 
4.900 571.0 66.746 12.444 153.010 -0.19099 -0.37500 
4.925 571.0 65.258 12.457 152.764 -0.19280 -0.37456 
4.950 571.0 62.966 12.476 152.720 -0.19335 -0.37493 
4.975 571.0 61.985 12.523 152.641 -0.19456 -0.37600 
5.000 583.0 70.048 12.482 152.361 -0.19579 -0.37389 
5.025 583.0 68.038 12.498 152.282 -0.19653 -0.37406 
5.050 583.0 66.363 12.474 152.208 -0.19666 -0.37313 
5.075 583.0 64.338 12.478 152.056 -0.19771 -0.37272 
5.100 583.0 62.772 12.510 151.665 -0.20073 -0.37226 
5.125 583.0 60.477 12.444 151.528 -0.20063 -0.36994 
5.150 583.0 58.627 12.531 151.652 -0.20114 -0.37280 
5.175 595.0 66.780 12.511 151.435 -0.20224 -0.37148 
5.200 595.0 64.073 12.481 151.197 -0.20332 -0.36980 
5.225 595.0 61.299 12.616 151.012 -0.20660 -0.37289 
5.250 595.0 59.639 12.582 151.174 -0.20501 -0.37252 
5.275 609.0 68.919 12.604 150.966 -0.20670 -0.37238 
5.300 609.0 65.640 12.631 150.768 -0.20841 -0.37241 
5.325 609.0 64.321 12.628 150.736 -0.20857 -0.37220 
5.350 609.0 62.023 12.690 150.519 -0.21095 -0.37313 
5.375 609.0 60.620 12.656 150.240 -0.21221 -0.37115 
5.400 621.0 68.777 12.693 150.451 -0.21142 -0.37294 
5.425 621.0 66.420 12.603 149.985 -0.21304 -0.36877 
5.450 621.0 64.583 12.652 149.965 -0.21394 -0.37003 
5.475 621.0 62.987 12.609 149.947 -0.21337 -0.36878 
5.500 634.0 71.815 12.646 149.706 -0.21552 -0.36890 
5.525 634.0 68.419 12.753 149.721 -0.21712 -0.37186 
5.550 634.0 65.788 12.704 149.791 -0.21589 -0.37079 
5.575 634.0 63.478 12.697 149.371 -0.21848 -0.36900 
5.600 634.0 60.574 12.706 149.194 -0.21976 -0.36857 
5.625 646.0 67.171 12.709 149.092 -0.22047 -0.36826 
5.650 646.0 64.776 12.702 149.333 -0.21881 -0.36901 
5.675 646.0 62.006 12.649 148.721 -0.22188 -0.36522 
5.700 646.0 58.673 12.872 148.840 -0.22474 -0.37167 
5.725 660.0 65.930 12.718 148.523 -0.22426 -0.36629 
5.750 660.0 62.285 12.707 148.275 -0.22567 -0.36504 
5.775 674.0 69.663 12.911 148.375 -0.22839 -0.37089 
5.800 674.0 64.764 12.837 148.292 -0.22771 -0.36858 
5.825 674.0 61.007 12.800 148.112 -0.22825 -0.36687 
5.850 693.0 70.018 12.815 148.101 -0.22858 -0.36723 
5.875 693.0 66.226 12.748 147.426 -0.23174 -0.36273 
5.900 693.0 61.576 12.647 147.390 -0.23025 -0.35990 
5.925 707.0 66.011 12.766 147.708 -0.23026 -0.36435 
5.950 707.0 60.680 12.755 147.542 -0.23113 -0.36340 
5.975 727.0 68.821 12.820 147.528 -0.23232 -0.36506 
6.000 727.0 63.974 12.842 147.366 -0.23373 -0.36499 
6.025 744.0 69.757 12.904 147.015 -0.23702 -0.36519 
6.050 744.0 64.317 12.760 146.415 -0.23832 -0.35891 
6.075 744.0 60.572 12.839 147.451 -0.23314 -0.36527 
6.100 764.0 66.631 12.834 146.859 -0.23680 -0.36269 
6.125 764.0 61.697 12.771 146.167 -0.24006 -0.35815 
6.150 778.0 65.774 12.701 146.224 -0.23848 -0.35656 
6.175 778.0 61.109 12.804 145.659 -0.24383 -0.35688 
6.200 778.0 56.251 12.908 146.467 -0.24056 -0.36299 
6.225 780.0 55.197 12.712 145.397 -0.24380 -0.35337 
6.250 780.0 50.346 12.718 146.029 -0.23999 -0.35618 
6.275 780.0 47.301 12.828 146.882 -0.23655 -0.36262 
6.300 780.0 43.600 12.605 145.112 -0.24362 -0.34939 
6.325 780.0 40.901 12.783 145.982 -0.24143 -0.35769 
6.350 780.0 37.349 12.994 145.099 -0.25071 -0.35938 
6.375 780.0 33.602 12.621 146.022 -0.23833 -0.35363 
6.400 780.0 30.466 12.776 145.896 -0.24185 -0.35715 
6.425 780.0 27.441 13.036 144.755 -0.25363 -0.35895 
6.450 780.0 24.177 12.782 146.172 -0.24022 -0.35846 
6.475 780.0 21.428 12.826 146.690 -0.23774 -0.36179 
6.500 780.0 18.315 12.973 145.073 -0.25050 -0.35871 

# MINIMA:
0.600 407.0 18.315 5.502 3.572 -0.88251 -0.81518 

# MAXIMA:
6.500 3911.6 79.666 40.646 356.807 0.91237 0.97629 

# PEAKS:

# END SPECTRUM


# SPECTRUM:
2

# START TIME:
15:29:59

# END TIME:
15:40:33

# THETA ANGLE:
0.00 ø

# INCIDENCE ANGLE:
60.00 ø

# ACCUMULATION NUMBER:
1

# ELLIPSOMETRIC CONFIGURATION:
+90.00 øModulator
-45.00 øAnalyser

# INTEGRATION TIME:
500 ms

# FIRST POINT:
0.6000 eV

# LAST POINT:
6.5000 eV

# INCREMENT:
0.0250 eV

# NUMBER OF POINTS:
237

# DATA:
eV Hv S0 Psi Delta Is Ic 
0.600 3098.8 62.200 18.666 228.927 0.45718 -0.39844 
0.625 2698.8 79.828 19.652 227.081 0.46389 -0.43135 
0.650 2501.9 79.678 20.714 226.059 0.47645 -0.45916 
0.675 2400.3 76.790 21.609 223.549 0.47179 -0.49631 
0.700 1898.7 79.962 21.659 219.870 0.43978 -0.52654 
0.725 1701.8 79.486 22.017 215.707 0.40567 -0.56441 
0.750 1600.2 72.940 22.142 211.429 0.36408 -0.59579 
0.775 1498.6 76.889 22.304 206.429 0.31256 -0.62887 
0.800 997.0 65.274 22.520 201.135 0.25514 -0.65999 
0.825 1295.4 63.043 22.510 195.805 0.19267 -0.68062 
0.850 1295.4 60.495 22.571 190.248 0.12612 -0.69756 
0.875 997.0 72.736 22.538 184.526 0.05587 -0.70583 
0.900 1098.6 63.009 22.601 178.844 -0.01432 -0.70944 
0.925 1200.2 61.519 22.558 173.102 -0.08509 -0.70341 
0.950 1301.8 67.420 22.622 167.367 -0.15530 -0.69292 
0.975 1003.3 71.762 22.576 161.479 -0.22521 -0.67226 
1.000 1301.8 70.285 22.593 156.068 -0.28778 -0.64842 
1.025 1301.8 76.395 22.545 150.631 -0.34734 -0.61721 
1.050 901.7 79.921 22.471 145.271 -0.40243 -0.58056 
1.075 1301.8 75.580 22.366 140.314 -0.44944 -0.54161 
1.100 1200.2 66.042 22.299 135.029 -0.49622 -0.49673 
1.125 1200.2 65.079 22.234 129.345 -0.54173 -0.44411 
1.150 1200.2 74.604 22.147 122.731 -0.58746 -0.37759 
1.175 1200.2 68.023 22.471 112.179 -0.65412 -0.26665 
1.200 1397.0 62.973 24.382 97.184 -0.74609 -0.09404 
1.225 1200.2 76.078 27.767 82.622 -0.81764 0.10587 
1.250 800.1 63.573 31.685 69.816 -0.83902 0.30844 
1.275 1397.0 61.799 36.149 56.261 -0.79221 0.52911 
1.300 1498.6 62.697 40.601 38.070 -0.60937 0.77799 
1.325 1898.7 61.351 40.771 15.942 -0.27168 0.95108 
1.350 1397.0 74.941 43.322 345.997 0.24155 0.96862 
1.375 1797.1 64.819 40.669 322.690 0.59921 0.78630 
1.400 1600.2 77.199 36.760 300.588 0.82549 0.48795 
1.425 3898.9 40.690 32.197 286.895 0.86287 0.26208 
1.450 4000.5 22.022 28.869 274.338 0.84319 0.06396 
1.475 780.0 99.109 25.667 262.687 0.77445 -0.09938 
1.500 553.0 65.822 25.046 254.145 0.73790 -0.20957 
1.525 652.0 72.554 23.720 245.245 0.66889 -0.30843 
1.550 589.0 74.551 22.893 237.325 0.60332 -0.38695 
1.575 624.0 67.173 22.241 229.038 0.52912 -0.45934 
1.600 624.0 73.150 21.889 220.953 0.45349 -0.52253 
1.625 562.0 72.715 21.581 213.584 0.37839 -0.56987 
1.650 575.0 67.424 21.425 205.701 0.29493 -0.61280 
1.675 562.0 69.134 21.304 198.110 0.21043 -0.64345 
1.700 551.0 70.730 21.115 190.693 0.12471 -0.66044 
1.725 541.0 69.144 21.103 183.231 0.03786 -0.67073 
1.750 531.0 71.106 20.982 175.696 -0.05018 -0.66677 
1.775 520.0 69.046 20.894 168.456 -0.13336 -0.65290 
1.800 502.0 69.658 20.824 160.938 -0.21703 -0.62811 
1.825 502.0 76.044 20.718 153.444 -0.29586 -0.59196 
1.850 491.0 71.300 20.625 145.862 -0.37002 -0.54574 
1.875 491.0 77.459 20.563 138.252 -0.43794 -0.49071 
1.900 477.0 68.972 20.535 130.372 -0.50053 -0.42555 
1.925 477.0 74.022 20.541 122.503 -0.55420 -0.35310 
1.950 477.0 76.963 20.607 114.209 -0.60092 -0.27018 
1.975 468.0 69.341 20.767 105.168 -0.63998 -0.17349 
2.000 468.0 68.930 21.120 95.659 -0.66896 -0.06629 
2.025 468.0 64.349 21.580 84.965 -0.68139 0.06003 
2.050 479.0 68.109 22.221 72.981 -0.66954 0.20494 
2.075 479.0 70.393 22.911 58.983 -0.61463 0.36956 
2.100 479.0 65.529 23.571 42.212 -0.49252 0.54294 
2.125 479.0 61.870 23.787 23.575 -0.29522 0.67653 
2.150 479.0 60.431 23.435 2.593 -0.03301 0.72906 
2.175 479.0 62.411 22.216 341.172 0.22593 0.66259 
2.200 479.0 68.514 20.607 321.132 0.41346 0.51299 
2.225 479.0 78.858 18.892 302.474 0.51688 0.32897 
2.250 462.0 70.524 17.502 286.269 0.55065 0.16070 
2.275 453.0 70.244 16.446 271.495 0.54288 0.01417 
2.300 444.0 70.016 15.639 257.949 0.50775 -0.10840 
2.325 435.0 68.545 15.083 245.297 0.45652 -0.21000 
2.350 435.0 77.462 14.743 234.172 0.39907 -0.28812 
2.375 423.0 69.761 14.561 224.286 0.33980 -0.34838 
2.400 423.0 76.385 14.436 214.574 0.27400 -0.39758 
2.425 413.0 71.112 14.399 205.547 0.20774 -0.43462 
2.450 402.0 70.269 14.352 197.405 0.14366 -0.45830 
2.475 402.0 76.565 14.325 189.830 0.08185 -0.47241 
2.500 418.0 67.801 14.265 182.228 0.01857 -0.47725 
2.525 418.0 72.771 14.205 175.040 -0.04114 -0.47398 
2.550 418.0 71.157 14.095 168.136 -0.09711 -0.46229 
2.575 418.0 79.242 13.874 161.622 -0.14679 -0.44185 
2.600 418.0 73.926 13.689 154.739 -0.19624 -0.41588 
2.625 403.0 69.834 13.437 148.093 -0.23891 -0.38372 
2.650 403.0 76.811 13.122 141.658 -0.27432 -0.34683 
2.675 403.0 67.298 12.791 135.554 -0.30236 -0.30826 
2.700 403.0 61.960 12.371 129.071 -0.32493 -0.26379 
2.725 413.0 68.850 11.797 121.917 -0.33975 -0.21162 
2.750 413.0 71.752 11.231 115.015 -0.34624 -0.16157 
2.775 413.0 62.866 10.600 108.713 -0.34250 -0.11602 
2.800 413.0 60.222 9.828 101.700 -0.32939 -0.06821 
2.825 413.0 58.719 8.925 94.447 -0.30560 -0.02377 
2.850 424.0 67.708 7.876 86.456 -0.27097 0.01678 
2.875 424.0 64.886 6.753 78.612 -0.22895 0.04611 
2.900 424.0 63.438 5.590 70.970 -0.18330 0.06322 
2.925 424.0 62.213 4.418 63.097 -0.13699 0.06951 
2.950 424.0 62.620 3.083 54.853 -0.08782 0.06183 
2.975 424.0 60.373 1.830 45.562 -0.04557 0.04469 
3.000 424.0 59.713 0.568 28.324 -0.00941 0.01745 
3.025 434.0 70.189 0.622 230.555 0.01677 -0.01379 
3.050 434.0 69.033 1.662 216.564 0.03455 -0.04658 
3.075 434.0 68.269 2.602 208.192 0.04284 -0.07993 
3.100 420.0 70.086 3.551 201.135 0.04458 -0.11533 
3.125 420.0 71.183 4.380 195.174 0.03986 -0.14698 
3.150 420.0 70.129 5.104 189.492 0.02922 -0.17479 
3.175 420.0 68.811 5.792 184.140 0.01450 -0.20029 
3.200 420.0 67.179 6.347 179.172 -0.00318 -0.21971 
3.225 420.0 66.339 6.786 174.754 -0.02145 -0.23368 
3.250 420.0 65.599 7.201 170.091 -0.04280 -0.24502 
3.275 420.0 63.875 7.577 165.552 -0.06523 -0.25316 
3.300 420.0 61.567 7.847 161.081 -0.08771 -0.25589 
3.325 429.0 66.952 8.076 156.464 -0.11109 -0.25506 
3.350 429.0 64.074 8.200 151.994 -0.13258 -0.24929 
3.375 429.0 64.152 8.283 148.065 -0.15082 -0.24197 
3.400 429.0 65.691 8.232 144.493 -0.16461 -0.23071 
3.425 429.0 65.291 8.137 141.132 -0.17585 -0.21819 
3.450 429.0 63.959 8.017 138.218 -0.18403 -0.20596 
3.475 429.0 62.158 7.880 135.567 -0.19013 -0.19394 
3.500 429.0 60.006 7.650 133.242 -0.19222 -0.18077 
3.525 439.0 68.478 7.463 131.255 -0.19364 -0.16984 
3.550 439.0 66.372 7.286 129.765 -0.19341 -0.16094 
3.575 439.0 64.000 7.079 128.377 -0.19175 -0.15185 
3.600 439.0 62.436 6.861 127.629 -0.18786 -0.14483 
3.625 439.0 61.162 6.680 126.842 -0.18493 -0.13856 
3.650 439.0 59.860 6.469 126.408 -0.18021 -0.13290 
3.675 448.0 68.756 6.294 126.230 -0.17581 -0.12881 
3.700 448.0 67.078 6.150 126.729 -0.17073 -0.12740 
3.725 448.0 66.799 6.036 127.214 -0.16656 -0.12649 
3.750 448.0 65.557 5.946 128.128 -0.16210 -0.12723 
3.775 448.0 63.673 5.855 128.672 -0.15846 -0.12682 
3.800 448.0 61.822 5.839 129.822 -0.15546 -0.12963 
3.825 457.0 68.545 5.840 130.664 -0.15356 -0.13191 
3.850 457.0 64.338 5.852 131.543 -0.15183 -0.13453 
3.875 457.0 59.878 5.875 132.337 -0.15053 -0.13715 
3.900 470.0 67.756 5.930 132.824 -0.15073 -0.13970 
3.925 470.0 62.671 5.999 133.641 -0.15044 -0.14346 
3.950 480.0 68.724 6.113 133.795 -0.15287 -0.14657 
3.975 480.0 64.304 6.186 134.005 -0.15410 -0.14884 
4.000 480.0 59.870 6.246 133.997 -0.15561 -0.15026 
4.025 493.0 68.333 6.391 133.914 -0.15938 -0.15344 
4.050 493.0 64.690 6.462 133.733 -0.16160 -0.15461 
4.075 493.0 61.170 6.532 133.487 -0.16400 -0.15556 
4.100 505.0 68.050 6.610 132.969 -0.16734 -0.15587 
4.125 505.0 63.567 6.702 132.330 -0.17138 -0.15611 
4.150 505.0 59.558 6.751 131.855 -0.17391 -0.15580 
4.175 516.0 66.447 6.840 131.308 -0.17766 -0.15612 
4.200 516.0 63.829 6.901 130.967 -0.18014 -0.15641 
4.225 516.0 61.073 6.959 130.205 -0.18371 -0.15527 
4.250 516.0 58.996 6.971 129.486 -0.18595 -0.15321 
4.275 529.0 67.104 7.026 128.947 -0.18883 -0.15263 
4.300 529.0 66.304 7.080 128.999 -0.19011 -0.15394 
4.325 529.0 69.727 6.985 127.184 -0.19232 -0.14590 
4.350 529.0 72.683 7.006 126.695 -0.19415 -0.14469 
4.375 529.0 74.890 7.019 126.299 -0.19550 -0.14361 
4.400 529.0 77.559 7.008 125.220 -0.19786 -0.13968 
4.425 519.0 68.392 7.065 125.873 -0.19782 -0.14305 
4.450 519.0 69.240 7.051 125.298 -0.19885 -0.14078 
4.475 519.0 69.659 7.032 124.617 -0.19999 -0.13805 
4.500 519.0 69.632 7.003 124.178 -0.20021 -0.13595 
4.525 519.0 70.130 6.997 124.002 -0.20048 -0.13523 
4.550 519.0 69.397 7.010 123.809 -0.20130 -0.13480 
4.575 519.0 68.724 6.986 123.473 -0.20141 -0.13317 
4.600 519.0 67.376 7.027 123.737 -0.20195 -0.13487 
4.625 519.0 66.033 7.022 123.731 -0.20181 -0.13474 
4.650 519.0 65.133 7.022 123.100 -0.20329 -0.13252 
4.675 519.0 63.281 7.023 122.918 -0.20375 -0.13190 
4.700 529.0 70.186 7.053 123.188 -0.20397 -0.13341 
4.725 529.0 68.461 7.093 123.146 -0.20520 -0.13400 
4.750 529.0 66.873 7.066 123.034 -0.20469 -0.13310 
4.775 529.0 64.054 7.008 122.597 -0.20404 -0.13047 
4.800 529.0 62.653 7.016 122.203 -0.20516 -0.12921 
4.825 529.0 60.203 7.128 122.441 -0.20784 -0.13211 
4.850 542.0 69.198 7.094 121.961 -0.20795 -0.12975 
4.875 542.0 67.282 7.139 122.191 -0.20871 -0.13139 
4.900 542.0 65.409 7.187 122.016 -0.21048 -0.13161 
4.925 542.0 62.724 7.124 121.817 -0.20913 -0.12975 
4.950 542.0 61.667 7.216 121.828 -0.21175 -0.13143 
4.975 542.0 59.812 7.244 121.980 -0.21222 -0.13251 
5.000 555.0 69.521 7.315 121.663 -0.21499 -0.13259 
5.025 555.0 67.567 7.279 120.968 -0.21554 -0.12935 
5.050 555.0 66.100 7.286 121.303 -0.21498 -0.13072 
5.075 555.0 63.650 7.401 121.183 -0.21856 -0.13227 
5.100 555.0 61.191 7.389 121.427 -0.21766 -0.13300 
5.125 555.0 59.295 7.413 120.852 -0.21969 -0.13123 
5.150 567.0 67.595 7.458 121.017 -0.22061 -0.13264 
5.175 567.0 65.162 7.403 120.349 -0.22053 -0.12912 
5.200 567.0 62.329 7.434 120.477 -0.22113 -0.13014 
5.225 567.0 60.341 7.541 120.353 -0.22453 -0.13148 
5.250 580.0 68.649 7.536 120.001 -0.22520 -0.13003 
5.275 580.0 66.800 7.534 119.726 -0.22574 -0.12890 
5.300 580.0 63.683 7.552 119.394 -0.22702 -0.12789 
5.325 580.0 61.429 7.648 119.714 -0.22911 -0.13076 
5.350 592.0 69.602 7.602 119.315 -0.22868 -0.12841 
5.375 592.0 67.881 7.672 119.288 -0.23079 -0.12945 
5.400 592.0 65.126 7.637 119.136 -0.23009 -0.12825 
5.425 592.0 62.946 7.692 118.793 -0.23249 -0.12778 
5.450 592.0 61.375 7.622 118.868 -0.23027 -0.12695 
5.475 592.0 59.535 7.744 118.605 -0.23443 -0.12784 
5.500 605.0 67.506 7.761 118.602 -0.23494 -0.12811 
5.525 605.0 64.883 7.764 118.401 -0.23548 -0.12733 
5.550 605.0 62.675 7.808 118.718 -0.23606 -0.12934 
5.575 617.0 69.935 7.850 117.579 -0.23985 -0.12528 
5.600 617.0 67.172 7.904 118.116 -0.24028 -0.12838 
5.625 617.0 63.833 7.877 117.998 -0.23972 -0.12745 
5.650 617.0 60.966 7.850 117.065 -0.24097 -0.12312 
5.675 632.0 69.023 7.956 117.504 -0.24318 -0.12662 
5.700 632.0 66.012 8.012 117.995 -0.24374 -0.12957 
5.725 632.0 62.609 8.001 117.633 -0.24422 -0.12785 
5.750 632.0 58.513 8.017 116.515 -0.24715 -0.12331 
5.775 648.0 66.558 7.992 117.053 -0.24525 -0.12525 
5.800 648.0 63.077 8.061 117.009 -0.24738 -0.12610 
5.825 648.0 58.979 8.072 116.539 -0.24875 -0.12423 
5.850 666.0 67.159 8.084 115.847 -0.25061 -0.12140 
5.875 666.0 62.959 8.042 116.306 -0.24835 -0.12278 
5.900 682.0 69.680 8.153 116.995 -0.25017 -0.12744 
5.925 682.0 64.321 8.115 115.846 -0.25154 -0.12185 
5.950 698.0 70.596 8.204 115.685 -0.25455 -0.12243 
5.975 698.0 65.214 8.204 115.462 -0.25505 -0.12145 
6.000 712.0 69.931 8.375 115.958 -0.25913 -0.12615 
6.025 712.0 64.666 8.250 115.834 -0.25562 -0.12376 
6.050 712.0 59.330 8.264 115.910 -0.25590 -0.12431 
6.075 732.0 67.510 8.161 114.098 -0.25654 -0.11474 
6.100 732.0 62.045 8.236 115.473 -0.25597 -0.12194 
6.125 732.0 56.711 8.338 114.075 -0.26200 -0.11706 
6.150 753.0 65.468 8.401 114.995 -0.26198 -0.12214 
6.175 753.0 60.638 8.410 115.567 -0.26105 -0.12489 
6.200 769.0 65.468 8.520 115.130 -0.26529 -0.12444 
6.225 769.0 61.153 8.565 113.883 -0.26932 -0.11925 
6.250 780.0 63.132 8.550 116.994 -0.26200 -0.13347 
6.275 780.0 58.827 8.377 114.590 -0.26213 -0.11995 
6.300 780.0 54.166 8.237 112.854 -0.26131 -0.11014 
6.325 780.0 50.263 8.625 114.375 -0.27012 -0.12239 
6.350 780.0 45.679 8.342 112.530 -0.26517 -0.11000 
6.375 780.0 41.570 8.437 114.719 -0.26367 -0.12138 
6.400 780.0 37.425 8.411 114.124 -0.26411 -0.11827 
6.425 780.0 33.784 8.614 112.914 -0.27279 -0.11531 
6.450 780.0 29.462 8.478 114.551 -0.26526 -0.12117 
6.475 780.0 26.349 8.589 114.680 -0.26836 -0.12332 
6.500 780.0 22.608 8.756 113.850 -0.27520 -0.12167 

# MINIMA:
0.600 402.0 22.022 0.568 2.593 -0.83902 -0.70944 

# MAXIMA:
6.500 4000.5 99.109 43.322 345.997 0.86287 0.96862 

# PEAKS:

# END SPECTRUM


# SPECTRUM:
3

# START TIME:
15:41:19

# END TIME:
15:51:50

# THETA ANGLE:
0.00 ø

# INCIDENCE ANGLE:
65.00 ø

# ACCUMULATION NUMBER:
1

# ELLIPSOMETRIC CONFIGURATION:
+90.00 øModulator
-45.00 øAnalyser

# INTEGRATION TIME:
500 ms

# FIRST POINT:
0.6000 eV

# LAST POINT:
6.5000 eV

# INCREMENT:
0.0250 eV

# NUMBER OF POINTS:
237

# DATA:
eV Hv S0 Psi Delta Is Ic 
0.600 2400.3 61.659 14.808 253.848 0.47467 -0.13748 
0.625 2101.9 78.261 15.992 253.749 0.50851 -0.14823 
0.650 2000.3 81.733 16.595 249.510 0.51278 -0.19162 
0.675 2000.3 79.156 16.676 246.259 0.50325 -0.22134 
0.700 1600.2 77.581 17.526 241.812 0.50620 -0.27129 
0.725 1498.6 77.162 17.650 236.268 0.48056 -0.32089 
0.750 1498.6 79.709 17.453 230.301 0.44028 -0.36551 
0.775 1397.0 79.981 17.218 223.780 0.39126 -0.40828 
0.800 895.4 61.018 17.031 216.201 0.33080 -0.45197 
0.825 1295.4 76.261 16.885 208.331 0.26380 -0.48928 
0.850 1295.4 70.074 16.619 200.200 0.18926 -0.51441 
0.875 895.4 64.055 16.536 191.629 0.10999 -0.53449 
0.900 1092.2 70.236 16.513 182.634 0.02505 -0.54446 
0.925 1193.8 68.655 16.498 173.859 -0.05825 -0.54144 
0.950 1295.4 75.289 16.581 165.023 -0.14136 -0.52842 
0.975 997.0 79.710 16.895 156.356 -0.22304 -0.50947 
1.000 1193.8 62.455 17.138 148.034 -0.29815 -0.47778 
1.025 1193.8 66.576 17.386 139.957 -0.36691 -0.43660 
1.050 793.8 67.917 17.703 132.350 -0.42818 -0.39029 
1.075 1193.8 66.607 18.072 125.552 -0.47988 -0.34295 
1.100 1193.8 73.134 18.472 118.084 -0.53027 -0.28295 
1.125 1193.8 73.948 19.036 110.980 -0.57578 -0.22079 
1.150 1092.2 68.253 19.772 102.725 -0.62104 -0.14025 
1.175 1092.2 66.311 21.328 92.265 -0.67706 -0.02678 
1.200 1289.1 67.290 24.437 79.637 -0.74097 0.13550 
1.225 990.6 67.055 28.190 69.028 -0.77757 0.29804 
1.250 692.2 63.248 31.552 60.149 -0.77351 0.44391 
1.275 1193.8 62.552 35.453 50.529 -0.72947 0.60071 
1.300 1295.4 72.272 39.203 38.374 -0.60813 0.76798 
1.325 1492.3 65.001 41.652 23.528 -0.39648 0.91061 
1.350 1092.2 67.694 42.004 2.806 -0.04869 0.99334 
1.375 1593.9 72.855 41.192 343.852 0.27566 0.95207 
1.400 1397.0 78.238 41.570 323.999 0.58359 0.80321 
1.425 3994.2 52.303 35.601 310.774 0.71690 0.61825 
1.450 3994.2 26.321 32.484 299.292 0.79021 0.44330 
1.475 780.0 130.053 27.581 288.688 0.77751 0.26299 
1.500 537.0 68.748 26.465 280.747 0.78391 0.14879 
1.525 633.0 72.565 23.914 272.453 0.74046 0.03172 
1.550 572.0 72.984 22.231 264.462 0.69716 -0.06760 
1.575 610.0 67.492 20.503 255.893 0.63635 -0.15992 
1.600 610.0 73.045 19.088 246.635 0.56740 -0.24512 
1.625 552.0 74.088 18.029 237.568 0.49681 -0.31568 
1.650 566.0 68.975 16.993 227.075 0.40932 -0.38070 
1.675 553.0 68.620 16.166 216.963 0.32160 -0.42735 
1.700 543.0 70.034 15.579 205.752 0.22479 -0.46600 
1.725 543.0 78.413 15.150 194.349 0.12504 -0.48880 
1.750 523.0 67.903 14.926 182.583 0.02243 -0.49725 
1.775 514.0 69.324 14.795 171.115 -0.07627 -0.48785 
1.800 497.0 70.421 14.940 159.179 -0.17708 -0.46565 
1.825 497.0 76.920 15.241 147.964 -0.26908 -0.43002 
1.850 484.0 70.743 15.686 137.138 -0.35413 -0.38160 
1.875 484.0 78.447 16.192 126.691 -0.42947 -0.32002 
1.900 469.0 69.577 16.869 116.570 -0.49674 -0.24843 
1.925 469.0 77.350 17.632 107.332 -0.55113 -0.17200 
1.950 459.0 70.727 18.486 98.007 -0.59555 -0.08378 
1.975 459.0 74.847 19.490 89.221 -0.62900 0.00855 
2.000 459.0 78.892 20.604 80.501 -0.64977 0.10872 
2.025 459.0 76.824 21.854 71.441 -0.65505 0.21993 
2.050 459.0 70.725 23.166 62.487 -0.64154 0.33415 
2.075 459.0 76.934 24.575 52.466 -0.59984 0.46083 
2.100 459.0 73.510 25.977 41.289 -0.51966 0.59173 
2.125 459.0 69.156 27.034 29.223 -0.39531 0.70666 
2.150 459.0 66.729 27.667 15.458 -0.21922 0.79273 
2.175 459.0 66.702 27.401 0.800 -0.01141 0.81709 
2.200 459.0 68.676 26.202 346.633 0.18318 0.77088 
2.225 459.0 73.487 24.245 332.941 0.34065 0.66687 
2.250 451.0 71.277 21.994 320.574 0.44107 0.53648 
2.275 451.0 79.216 19.726 309.635 0.48937 0.40534 
2.300 438.0 70.178 17.512 298.988 0.50201 0.27813 
2.325 430.0 67.939 15.414 288.349 0.48640 0.16132 
2.350 430.0 75.225 13.562 278.294 0.45114 0.06576 
2.375 420.0 68.886 11.985 268.120 0.40605 -0.01333 
2.400 420.0 74.957 10.498 256.732 0.34874 -0.08223 
2.425 410.0 70.215 9.294 244.316 0.28726 -0.13815 
2.450 402.0 71.416 8.300 231.330 0.22306 -0.17851 
2.475 402.0 77.558 7.547 217.322 0.15788 -0.20708 
2.500 402.0 63.534 6.999 201.487 0.08860 -0.22509 
2.525 402.0 67.504 6.747 185.457 0.02219 -0.23228 
2.550 402.0 66.030 6.714 169.626 -0.04182 -0.22843 
2.575 402.0 75.059 6.847 155.139 -0.09953 -0.21479 
2.600 402.0 69.161 7.216 141.438 -0.15535 -0.19487 
2.625 393.0 72.469 7.609 128.902 -0.20427 -0.16484 
2.650 386.0 70.590 8.085 118.328 -0.24513 -0.13214 
2.675 386.0 61.880 8.551 108.746 -0.27849 -0.09451 
2.700 395.0 67.322 9.049 99.476 -0.30639 -0.05114 
2.725 395.0 65.130 9.538 90.282 -0.32683 -0.00161 
2.750 395.0 67.817 10.008 81.625 -0.33862 0.04985 
2.775 395.0 60.272 10.301 74.491 -0.33907 0.09409 
2.800 404.0 69.250 10.595 66.885 -0.33245 0.14191 
2.825 404.0 68.424 10.784 59.606 -0.31710 0.18600 
2.850 404.0 65.235 10.877 52.191 -0.29280 0.22720 
2.875 404.0 63.636 10.856 44.897 -0.26113 0.26207 
2.900 404.0 60.553 10.634 38.236 -0.22449 0.28491 
2.925 404.0 59.950 10.335 31.638 -0.18516 0.30052 
2.950 413.0 71.636 9.998 24.616 -0.14244 0.31089 
2.975 413.0 68.819 9.501 18.190 -0.10164 0.30933 
3.000 413.0 65.813 8.805 11.718 -0.06145 0.29623 
3.025 413.0 65.526 8.057 6.291 -0.03041 0.27588 
3.050 413.0 63.279 7.255 1.348 -0.00589 0.25048 
3.075 413.0 61.713 6.447 357.052 0.01148 0.22286 
3.100 405.0 69.175 5.598 353.212 0.02295 0.19281 
3.125 405.0 70.615 4.718 350.729 0.02641 0.16181 
3.150 405.0 68.034 3.887 349.702 0.02418 0.13308 
3.175 405.0 64.968 3.036 351.039 0.01647 0.10447 
3.200 405.0 64.493 2.326 356.719 0.00464 0.08096 
3.225 405.0 61.632 1.790 9.365 -0.01016 0.06160 
3.250 405.0 61.273 1.518 31.810 -0.02791 0.04500 
3.275 405.0 59.767 1.662 56.746 -0.04849 0.03179 
3.300 415.0 68.237 2.105 72.611 -0.07005 0.02194 
3.325 415.0 63.809 2.692 79.126 -0.09216 0.01770 
3.350 424.0 70.316 3.358 80.347 -0.11531 0.01961 
3.375 424.0 71.356 3.922 80.325 -0.13454 0.02294 
3.400 424.0 72.819 4.418 78.479 -0.15052 0.03068 
3.425 424.0 71.682 4.857 76.489 -0.16405 0.03942 
3.450 424.0 71.333 5.253 73.666 -0.17499 0.05128 
3.475 424.0 69.114 5.563 71.405 -0.18289 0.06153 
3.500 424.0 66.952 5.810 69.002 -0.18805 0.07218 
3.525 424.0 63.950 6.048 66.438 -0.19207 0.08376 
3.550 424.0 63.392 6.205 64.326 -0.19369 0.09311 
3.575 424.0 60.733 6.333 62.156 -0.19387 0.10241 
3.600 424.0 59.434 6.394 60.426 -0.19251 0.10925 
3.625 434.0 68.773 6.469 58.393 -0.19067 0.11734 
3.650 434.0 67.250 6.504 56.809 -0.18838 0.12323 
3.675 434.0 66.596 6.510 54.775 -0.18404 0.12995 
3.700 434.0 64.912 6.497 53.504 -0.18074 0.13372 
3.725 434.0 64.097 6.458 52.323 -0.17690 0.13661 
3.750 434.0 63.248 6.372 51.574 -0.17282 0.13710 
3.775 434.0 61.453 6.322 50.816 -0.16966 0.13829 
3.800 443.0 67.913 6.256 50.140 -0.16630 0.13885 
3.825 443.0 64.945 6.174 49.956 -0.16371 0.13758 
3.850 443.0 60.569 6.084 50.328 -0.16223 0.13455 
3.875 455.0 69.224 6.042 50.260 -0.16098 0.13383 
3.900 455.0 63.547 5.963 50.519 -0.15949 0.13139 
3.925 465.0 69.021 5.916 51.063 -0.15948 0.12886 
3.950 465.0 63.441 5.898 51.441 -0.15987 0.12743 
3.975 475.0 69.297 5.857 52.444 -0.16095 0.12375 
4.000 475.0 65.332 5.836 52.973 -0.16151 0.12183 
4.025 475.0 61.367 5.855 53.928 -0.16404 0.11950 
4.050 488.0 69.522 5.892 54.520 -0.16629 0.11853 
4.075 488.0 65.821 5.894 55.489 -0.16833 0.11574 
4.100 488.0 60.959 5.948 55.915 -0.17071 0.11552 
4.125 501.0 70.244 5.996 56.609 -0.17347 0.11434 
4.150 501.0 65.413 6.068 57.125 -0.17656 0.11411 
4.175 501.0 61.616 6.111 57.698 -0.17895 0.11313 
4.200 501.0 58.857 6.192 57.872 -0.18162 0.11405 
4.225 515.0 69.538 6.272 58.320 -0.18482 0.11406 
4.250 515.0 67.198 6.340 58.809 -0.18778 0.11368 
4.275 515.0 62.856 6.446 58.709 -0.19065 0.11588 
4.300 515.0 74.457 6.503 59.013 -0.19292 0.11586 
4.325 515.0 77.259 6.565 58.709 -0.19411 0.11798 
4.350 503.0 67.384 6.634 59.208 -0.19716 0.11749 
4.375 503.0 70.601 6.685 58.922 -0.19804 0.11936 
4.400 503.0 71.965 6.733 59.097 -0.19981 0.11959 
4.425 503.0 73.869 6.806 58.814 -0.20134 0.12187 
4.450 503.0 74.295 6.810 58.849 -0.20152 0.12181 
4.475 503.0 73.805 6.972 58.357 -0.20514 0.12642 
4.500 503.0 74.862 6.991 58.161 -0.20528 0.12747 
4.525 503.0 74.605 7.041 57.679 -0.20561 0.13009 
4.550 503.0 73.455 7.044 57.894 -0.20618 0.12936 
4.575 503.0 72.669 7.070 57.989 -0.20715 0.12950 
4.600 503.0 71.702 7.117 57.425 -0.20722 0.13239 
4.625 503.0 71.125 7.089 57.629 -0.20686 0.13113 
4.650 503.0 69.052 7.172 57.201 -0.20825 0.13420 
4.675 503.0 66.609 7.185 57.711 -0.20981 0.13258 
4.700 503.0 64.963 7.124 57.800 -0.20828 0.13116 
4.725 503.0 63.150 7.166 57.206 -0.20808 0.13407 
4.750 514.0 72.194 7.244 56.907 -0.20961 0.13661 
4.775 514.0 69.672 7.243 57.556 -0.21111 0.13420 
4.800 514.0 66.408 7.232 57.549 -0.21078 0.13403 
4.825 514.0 65.025 7.243 57.468 -0.21090 0.13452 
4.850 514.0 62.388 7.269 57.577 -0.21189 0.13459 
4.875 514.0 59.737 7.319 57.617 -0.21342 0.13535 
4.900 528.0 71.013 7.289 58.366 -0.21430 0.13201 
4.925 528.0 69.238 7.298 58.336 -0.21448 0.13228 
4.950 528.0 66.295 7.381 58.078 -0.21628 0.13474 
4.975 528.0 64.816 7.363 57.984 -0.21555 0.13477 
5.000 528.0 63.379 7.376 58.691 -0.21755 0.13232 
5.025 528.0 61.411 7.503 58.553 -0.22090 0.13509 
5.050 528.0 59.067 7.486 58.204 -0.21958 0.13612 
5.075 544.0 71.098 7.535 58.033 -0.22057 0.13765 
5.100 544.0 68.696 7.538 58.696 -0.22223 0.13514 
5.125 544.0 66.550 7.569 58.843 -0.22347 0.13511 
5.150 544.0 64.317 7.608 58.727 -0.22432 0.13625 
5.175 544.0 61.485 7.614 58.875 -0.22485 0.13577 
5.200 555.0 68.982 7.651 58.633 -0.22535 0.13737 
5.225 555.0 66.867 7.688 59.163 -0.22765 0.13591 
5.250 555.0 63.307 7.735 59.263 -0.22926 0.13633 
5.275 555.0 61.599 7.818 59.001 -0.23103 0.13881 
5.300 555.0 59.466 7.742 60.058 -0.23135 0.13326 
5.325 570.0 70.465 7.816 59.591 -0.23238 0.13639 
5.350 570.0 66.645 7.811 59.988 -0.23320 0.13470 
5.375 570.0 64.826 7.857 59.533 -0.23345 0.13733 
5.400 570.0 63.055 7.826 59.493 -0.23244 0.13695 
5.425 570.0 60.602 7.948 59.691 -0.23647 0.13823 
5.450 570.0 59.662 7.971 59.615 -0.23693 0.13892 
5.475 582.0 66.437 7.990 59.783 -0.23788 0.13855 
5.500 582.0 63.850 8.053 60.291 -0.24094 0.13748 
5.525 582.0 61.651 8.037 60.039 -0.23989 0.13828 
5.550 593.0 68.917 8.109 60.159 -0.24227 0.13898 
5.575 593.0 65.416 8.114 60.050 -0.24215 0.13953 
5.600 593.0 62.917 8.183 59.872 -0.24371 0.14143 
5.625 604.0 68.392 8.112 60.302 -0.24270 0.13842 
5.650 604.0 65.230 8.149 60.300 -0.24377 0.13904 
5.675 604.0 61.850 8.248 60.223 -0.24646 0.14102 
5.700 604.0 58.393 8.288 59.924 -0.24689 0.14298 
5.725 620.0 67.182 8.283 60.819 -0.24894 0.13902 
5.750 620.0 64.285 8.342 60.589 -0.25008 0.14098 
5.775 620.0 59.181 8.391 60.768 -0.25195 0.14099 
5.800 635.0 67.419 8.428 60.691 -0.25285 0.14194 
5.825 635.0 63.407 8.487 60.651 -0.25447 0.14309 
5.850 650.0 70.367 8.450 61.551 -0.25560 0.13848 
5.875 650.0 64.568 8.498 61.381 -0.25658 0.14000 
5.900 663.0 69.522 8.550 60.324 -0.25547 0.14558 
5.925 663.0 64.028 8.525 61.571 -0.25783 0.13958 
5.950 663.0 59.894 8.586 60.591 -0.25719 0.14497 
5.975 683.0 68.733 8.628 60.724 -0.25875 0.14506 
6.000 683.0 63.111 8.601 61.471 -0.25983 0.14125 
6.025 698.0 68.231 8.765 61.307 -0.26423 0.14462 
6.050 698.0 63.009 8.785 59.864 -0.26108 0.15156 
6.075 711.0 66.803 8.851 60.250 -0.26399 0.15088 
6.100 711.0 62.356 8.707 62.560 -0.26561 0.13792 
6.125 729.0 67.417 8.890 61.443 -0.26820 0.14597 
6.150 729.0 62.901 8.842 61.022 -0.26574 0.14717 
6.175 746.0 69.452 8.812 61.245 -0.26544 0.14565 
6.200 746.0 63.741 8.844 61.354 -0.26665 0.14566 
6.225 746.0 59.468 8.872 59.690 -0.26309 0.15380 
6.250 766.0 68.060 8.748 60.557 -0.26180 0.14778 
6.275 766.0 62.125 9.051 59.126 -0.26667 0.15943 
6.300 780.0 64.891 8.919 60.518 -0.26667 0.15076 
6.325 780.0 60.557 8.948 61.284 -0.26948 0.14764 
6.350 780.0 55.500 9.015 62.468 -0.27445 0.14306 
6.375 780.0 49.800 8.783 61.205 -0.26448 0.14537 
6.400 780.0 45.173 9.174 62.312 -0.27875 0.14627 
6.425 780.0 40.118 9.045 61.193 -0.27209 0.14963 
6.450 780.0 35.554 9.030 61.590 -0.27269 0.14750 
6.475 780.0 31.084 9.165 62.635 -0.27931 0.14456 
6.500 780.0 26.917 9.177 60.204 -0.27326 0.15648 

# MINIMA:
0.600 386.0 26.321 1.518 0.800 -0.77757 -0.54446 

# MAXIMA:
6.500 3994.2 130.053 42.004 357.052 0.79021 0.99334 

# PEAKS:

# END SPECTRUM


# SPECTRUM:
4

# START TIME:
15:52:36

# END TIME:
16:03:03

# THETA ANGLE:
0.00 ø

# INCIDENCE ANGLE:
70.00 ø

# ACCUMULATION NUMBER:
1

# ELLIPSOMETRIC CONFIGURATION:
+90.00 øModulator
-45.00 øAnalyser

# INTEGRATION TIME:
500 ms

# FIRST POINT:
0.6000 eV

# LAST POINT:
6.5000 eV

# INCREMENT:
0.0250 eV

# NUMBER OF POINTS:
237

# DATA:
eV Hv S0 Psi Delta Is Ic 
0.600 2101.9 66.213 14.379 293.906 0.43983 0.19496 
0.625 1701.8 76.677 15.674 290.636 0.48685 0.18335 
0.650 1600.2 76.090 16.178 285.630 0.51538 0.14419 
0.675 1600.2 71.810 15.878 281.879 0.51502 0.10833 
0.700 1403.4 71.500 16.167 276.973 0.53088 0.06493 
0.725 1301.8 68.194 15.412 270.767 0.51235 0.00686 
0.750 1301.8 69.209 14.579 264.898 0.48530 -0.04333 
0.775 1200.2 67.607 13.590 257.886 0.44661 -0.09586 
0.800 901.7 77.714 12.437 249.013 0.39273 -0.15065 
0.825 1098.6 62.610 11.207 238.974 0.32675 -0.19654 
0.850 1200.2 73.188 10.152 225.952 0.24941 -0.24125 
0.875 901.7 78.102 9.233 211.098 0.16359 -0.27122 
0.900 1003.3 67.220 8.470 194.278 0.07186 -0.28237 
0.925 1104.9 67.066 8.526 175.653 -0.02223 -0.29239 
0.950 1206.5 74.486 8.868 157.371 -0.11720 -0.28117 
0.975 908.1 74.664 9.772 141.394 -0.20874 -0.26142 
1.000 1206.5 72.402 10.761 127.693 -0.29029 -0.22431 
1.025 1104.9 62.619 12.065 116.706 -0.36521 -0.18373 
1.050 806.5 82.589 13.297 105.923 -0.43049 -0.12281 
1.075 1104.9 64.484 14.635 98.151 -0.48399 -0.06932 
1.100 1104.9 70.933 15.990 90.929 -0.52954 -0.00858 
1.125 1104.9 70.455 17.549 83.821 -0.57163 0.06189 
1.150 1003.3 66.776 19.361 76.676 -0.60870 0.14416 
1.175 1003.3 65.633 22.152 68.870 -0.65151 0.25179 
1.200 1200.2 70.848 25.780 61.547 -0.68864 0.37318 
1.225 901.7 70.948 29.452 54.967 -0.70116 0.49156 
1.250 609.6 60.429 32.612 48.676 -0.68186 0.59954 
1.275 1111.3 74.056 35.626 42.327 -0.63763 0.70009 
1.300 1111.3 73.036 38.508 34.177 -0.54739 0.80615 
1.325 1308.1 65.864 41.503 24.320 -0.40877 0.90447 
1.350 908.1 67.460 42.883 10.392 -0.17988 0.98091 
1.375 1409.7 69.203 41.926 356.543 0.05996 0.99244 
1.400 1212.9 78.755 43.050 340.794 0.32821 0.94215 
1.425 3511.6 59.112 37.926 329.153 0.49719 0.83250 
1.450 3911.6 32.347 35.607 319.057 0.62040 0.71513 
1.475 780.0 174.283 31.242 310.849 0.67086 0.58008 
1.500 517.0 68.104 30.179 303.982 0.72070 0.48579 
1.525 614.0 74.263 27.122 297.827 0.71767 0.37882 
1.550 554.0 70.113 24.566 291.928 0.70152 0.28240 
1.575 592.0 66.785 22.073 285.948 0.66968 0.19137 
1.600 592.0 71.034 19.665 279.284 0.62548 0.10225 
1.625 519.0 56.120 17.480 271.932 0.57268 0.01932 
1.650 555.0 67.688 15.083 263.205 0.49899 -0.05946 
1.675 546.0 72.172 12.933 253.342 0.41797 -0.12507 
1.700 534.0 69.465 10.830 240.779 0.32212 -0.18018 
1.725 534.0 75.361 9.026 224.646 0.21776 -0.22047 
1.750 519.0 69.410 7.657 203.671 0.10603 -0.24188 
1.775 519.0 80.875 7.144 178.667 -0.00574 -0.24672 
1.800 493.0 71.653 7.563 152.800 -0.11928 -0.23210 
1.825 493.0 79.465 8.727 131.348 -0.22516 -0.19814 
1.850 477.0 68.765 10.321 114.771 -0.32010 -0.14771 
1.875 477.0 77.478 12.116 102.698 -0.40041 -0.09022 
1.900 460.0 67.945 14.082 92.114 -0.47168 -0.01741 
1.925 460.0 74.370 15.926 83.661 -0.52451 0.05827 
1.950 447.0 66.183 17.784 75.920 -0.56419 0.14151 
1.975 447.0 72.425 19.618 68.874 -0.59000 0.22797 
2.000 439.0 68.195 21.428 62.338 -0.60243 0.31577 
2.025 439.0 71.823 23.255 55.825 -0.60021 0.40752 
2.050 439.0 67.785 24.959 49.746 -0.58394 0.49441 
2.075 439.0 75.160 26.707 42.905 -0.54664 0.58816 
2.100 439.0 75.228 28.375 35.625 -0.48712 0.67977 
2.125 439.0 73.948 29.811 27.750 -0.40169 0.76348 
2.150 439.0 71.399 30.968 18.819 -0.28465 0.83525 
2.175 439.0 69.513 31.386 9.066 -0.14012 0.87808 
2.200 439.0 71.006 30.973 359.191 0.01246 0.88242 
2.225 439.0 73.667 29.873 349.429 0.15848 0.84915 
2.250 439.0 77.918 28.113 340.570 0.27651 0.78390 
2.275 429.0 69.038 25.937 332.921 0.35810 0.70042 
2.300 429.0 74.545 23.517 325.975 0.40945 0.60647 
2.325 421.0 69.334 20.981 319.785 0.43170 0.51059 
2.350 421.0 74.739 18.528 314.588 0.42916 0.42303 
2.375 411.0 65.770 16.183 310.120 0.40935 0.34496 
2.400 411.0 70.922 13.771 306.149 0.37339 0.27277 
2.425 411.0 76.120 11.455 302.819 0.32714 0.21098 
2.450 397.0 70.704 9.278 300.506 0.27417 0.16154 
2.475 397.0 76.339 7.188 299.756 0.21554 0.12322 
2.500 397.0 77.852 5.086 302.452 0.14902 0.09476 
2.525 390.0 72.997 3.273 312.756 0.08369 0.07738 
2.550 390.0 70.248 2.076 345.954 0.01757 0.07024 
2.575 382.0 65.664 2.455 30.014 -0.04281 0.07410 
2.600 391.0 72.326 3.847 50.126 -0.10276 0.08584 
2.625 376.0 66.175 5.449 55.470 -0.15576 0.10717 
2.650 376.0 76.917 7.011 56.077 -0.20106 0.13523 
2.675 376.0 66.193 8.423 55.045 -0.23753 0.16604 
2.700 376.0 62.931 9.779 52.951 -0.26718 0.20169 
2.725 376.0 59.936 11.209 49.831 -0.29141 0.24599 
2.750 376.0 65.914 12.414 46.687 -0.30552 0.28804 
2.775 386.0 68.982 13.426 43.424 -0.31049 0.32806 
2.800 386.0 67.913 14.372 39.946 -0.30877 0.36867 
2.825 386.0 68.171 15.175 36.400 -0.29985 0.40670 
2.850 386.0 65.454 15.853 32.487 -0.28228 0.44331 
2.875 386.0 60.937 16.340 28.581 -0.25830 0.47414 
2.900 386.0 62.465 16.674 24.888 -0.23135 0.49866 
2.925 394.0 71.412 16.920 21.237 -0.20172 0.51907 
2.950 394.0 71.748 16.950 17.343 -0.16626 0.53239 
2.975 394.0 68.682 16.781 13.693 -0.13087 0.53712 
3.000 394.0 65.742 16.507 10.162 -0.09612 0.53629 
3.025 394.0 63.946 16.071 7.145 -0.06617 0.52790 
3.050 394.0 61.748 15.513 4.518 -0.04060 0.51384 
3.075 394.0 60.504 14.869 2.318 -0.02006 0.49564 
3.100 394.0 78.586 14.223 0.534 -0.00444 0.47630 
3.125 386.0 66.993 13.536 359.284 0.00569 0.45506 
3.150 386.0 64.344 12.782 358.618 0.01041 0.43140 
3.175 386.0 61.841 11.985 358.623 0.00976 0.40613 
3.200 386.0 60.582 11.330 359.385 0.00414 0.38523 
3.225 395.0 67.730 10.752 0.778 -0.00498 0.36652 
3.250 395.0 66.828 10.265 2.946 -0.01802 0.35024 
3.275 395.0 65.980 9.832 5.790 -0.03395 0.33477 
3.300 395.0 63.271 9.533 9.073 -0.05151 0.32258 
3.325 403.0 67.075 9.463 12.793 -0.07182 0.31629 
3.350 403.0 64.091 9.506 16.521 -0.09264 0.31232 
3.375 403.0 62.660 9.643 19.635 -0.11098 0.31106 
3.400 403.0 64.089 9.940 21.893 -0.12679 0.31551 
3.425 403.0 65.670 10.254 23.753 -0.14112 0.32067 
3.450 403.0 63.491 10.624 24.937 -0.15280 0.32863 
3.475 403.0 62.617 10.958 25.659 -0.16162 0.33644 
3.500 403.0 59.565 11.254 26.089 -0.16835 0.34380 
3.525 412.0 66.990 11.567 26.304 -0.17409 0.35219 
3.550 412.0 66.191 11.846 26.177 -0.17726 0.36060 
3.575 412.0 64.540 12.068 25.950 -0.17893 0.36768 
3.600 412.0 61.884 12.290 25.535 -0.17931 0.37533 
3.625 412.0 62.151 12.473 25.019 -0.17837 0.38219 
3.650 412.0 61.384 12.667 24.601 -0.17813 0.38906 
3.675 412.0 58.923 12.784 24.063 -0.17597 0.39408 
3.700 422.0 70.032 12.861 23.585 -0.17365 0.39775 
3.725 422.0 68.194 12.899 23.096 -0.17071 0.40032 
3.750 422.0 66.851 12.945 22.663 -0.16824 0.40292 
3.775 422.0 64.435 12.961 22.188 -0.16509 0.40479 
3.800 422.0 62.211 12.957 21.769 -0.16208 0.40586 
3.825 422.0 57.531 12.920 21.490 -0.15967 0.40556 
3.850 435.0 68.104 12.867 21.295 -0.15768 0.40454 
3.875 435.0 64.250 12.870 21.059 -0.15605 0.40527 
3.900 444.0 67.358 12.792 21.013 -0.15484 0.40311 
3.925 444.0 62.728 12.742 20.997 -0.15417 0.40170 
3.950 456.0 68.865 12.679 21.063 -0.15391 0.39965 
3.975 456.0 66.092 12.634 21.265 -0.15481 0.39780 
4.000 456.0 60.058 12.627 21.299 -0.15497 0.39749 
4.025 466.0 66.021 12.561 21.565 -0.15604 0.39482 
4.050 466.0 63.048 12.559 21.750 -0.15730 0.39427 
4.075 466.0 59.890 12.524 21.979 -0.15845 0.39259 
4.100 481.0 70.035 12.495 22.381 -0.16086 0.39063 
4.125 481.0 64.328 12.504 22.729 -0.16334 0.38992 
4.150 481.0 61.812 12.495 22.943 -0.16469 0.38905 
4.175 481.0 58.611 12.545 23.264 -0.16749 0.38957 
4.200 496.0 69.891 12.540 23.584 -0.16960 0.38848 
4.225 496.0 65.541 12.532 24.101 -0.17299 0.38670 
4.250 496.0 64.881 12.629 24.218 -0.17504 0.38915 
4.275 507.0 69.506 12.635 24.600 -0.17770 0.38813 
4.300 491.0 70.614 12.648 25.024 -0.18075 0.38719 
4.325 491.0 75.646 12.832 24.956 -0.18274 0.39267 
4.350 491.0 77.438 12.692 25.367 -0.18366 0.38736 
4.375 481.0 69.442 12.732 25.522 -0.18524 0.38799 
4.400 481.0 72.910 12.761 25.712 -0.18692 0.38819 
4.425 481.0 70.125 12.891 25.674 -0.18843 0.39200 
4.450 481.0 72.467 12.850 25.785 -0.18864 0.39050 
4.475 481.0 75.180 12.894 25.924 -0.19020 0.39127 
4.500 481.0 75.342 13.006 25.786 -0.19078 0.39490 
4.525 481.0 74.750 13.066 25.948 -0.19273 0.39605 
4.550 481.0 71.619 13.044 26.012 -0.19286 0.39520 
4.575 481.0 71.543 13.120 25.987 -0.19373 0.39742 
4.600 481.0 69.530 13.159 25.974 -0.19418 0.39858 
4.625 481.0 71.127 13.181 26.169 -0.19583 0.39853 
4.650 481.0 67.721 13.205 25.958 -0.19470 0.39993 
4.675 481.0 65.359 13.149 26.387 -0.19690 0.39688 
4.700 481.0 64.039 13.138 26.276 -0.19598 0.39697 
4.725 481.0 61.838 13.255 26.126 -0.19655 0.40075 
4.750 481.0 61.214 13.186 26.220 -0.19626 0.39850 
4.775 481.0 57.326 13.242 26.361 -0.19800 0.39957 
4.800 492.0 65.950 13.347 26.269 -0.19882 0.40283 
4.825 492.0 64.261 13.286 26.495 -0.19955 0.40033 
4.850 492.0 63.768 13.476 26.176 -0.19995 0.40677 
4.875 503.0 72.667 13.349 26.771 -0.20238 0.40114 
4.900 503.0 68.280 13.355 26.636 -0.20151 0.40176 
4.925 503.0 67.246 13.330 26.670 -0.20140 0.40096 
4.950 503.0 63.802 13.420 26.601 -0.20217 0.40371 
4.975 503.0 63.092 13.434 26.714 -0.20316 0.40370 
5.000 503.0 61.734 13.493 26.917 -0.20542 0.40461 
5.025 503.0 58.909 13.360 27.126 -0.20501 0.40017 
5.050 516.0 71.019 13.459 27.049 -0.20587 0.40320 
5.075 516.0 65.954 13.515 27.280 -0.20830 0.40391 
5.100 516.0 64.416 13.437 27.399 -0.20802 0.40132 
5.125 516.0 62.640 13.545 27.340 -0.20915 0.40452 
5.150 516.0 59.959 13.488 27.710 -0.21093 0.40158 
5.175 529.0 68.973 13.450 27.755 -0.21070 0.40039 
5.200 529.0 67.079 13.560 27.918 -0.21344 0.40281 
5.225 529.0 62.473 13.476 27.935 -0.21232 0.40042 
5.250 529.0 60.339 13.568 28.090 -0.21476 0.40239 
5.275 540.0 67.591 13.589 27.998 -0.21441 0.40329 
5.300 540.0 66.429 13.526 28.192 -0.21487 0.40086 
5.325 540.0 62.957 13.725 28.124 -0.21730 0.40655 
5.350 540.0 62.579 13.591 28.562 -0.21840 0.40121 
5.375 551.0 69.366 13.617 28.534 -0.21859 0.40203 
5.400 551.0 65.205 13.704 28.537 -0.21991 0.40439 
5.425 551.0 62.460 13.729 28.554 -0.22040 0.40502 
5.450 551.0 61.220 13.778 28.782 -0.22275 0.40547 
5.475 551.0 58.943 13.687 29.286 -0.22491 0.40102 
5.500 551.0 57.150 13.848 28.935 -0.22487 0.40676 
5.525 568.0 66.280 13.763 29.076 -0.22460 0.40392 
5.550 568.0 65.195 13.922 28.982 -0.22631 0.40857 
5.575 568.0 65.002 13.854 29.171 -0.22664 0.40600 
5.600 580.0 69.993 13.929 29.117 -0.22738 0.40824 
5.625 580.0 67.901 13.942 29.276 -0.22871 0.40795 
5.650 580.0 64.591 13.880 29.851 -0.23183 0.40396 
5.675 580.0 59.732 13.943 29.601 -0.23103 0.40668 
5.700 594.0 68.137 13.963 29.627 -0.23152 0.40710 
5.725 594.0 62.781 13.970 29.770 -0.23264 0.40670 
5.750 594.0 61.389 13.929 29.744 -0.23183 0.40571 
5.775 609.0 69.865 14.137 29.833 -0.23564 0.41091 
5.800 609.0 65.797 14.005 30.207 -0.23628 0.40586 
5.825 609.0 60.364 14.070 30.280 -0.23781 0.40728 
5.850 626.0 69.487 14.079 30.179 -0.23722 0.40794 
5.875 626.0 63.648 14.156 30.172 -0.23836 0.41001 
5.900 626.0 57.465 14.049 30.917 -0.24199 0.40406 
5.925 650.0 72.548 14.093 30.736 -0.24140 0.40599 
5.950 650.0 66.606 14.103 30.589 -0.24051 0.40687 
5.975 663.0 72.063 14.135 30.883 -0.24310 0.40647 
6.000 663.0 64.670 14.321 30.454 -0.24295 0.41320 
6.025 663.0 59.358 14.283 30.978 -0.24611 0.40996 
6.050 682.0 69.874 14.356 30.816 -0.24610 0.41257 
6.075 682.0 62.108 14.216 31.236 -0.24690 0.40710 
6.100 701.0 69.403 14.299 30.745 -0.24471 0.41140 
6.125 701.0 65.505 14.279 31.335 -0.24860 0.40833 
6.150 701.0 59.723 14.234 31.477 -0.24889 0.40652 
6.175 724.0 71.539 14.293 31.395 -0.24925 0.40842 
6.200 724.0 64.105 14.437 30.822 -0.24742 0.41468 
6.225 724.0 60.549 14.312 31.657 -0.25142 0.40778 
6.250 751.0 72.215 14.455 31.067 -0.24947 0.41410 
6.275 751.0 67.890 14.327 30.816 -0.24566 0.41183 
6.300 751.0 62.119 14.412 31.495 -0.25188 0.41110 
6.325 768.0 67.984 14.346 32.051 -0.25477 0.40692 
6.350 768.0 60.840 14.298 32.832 -0.25950 0.40217 
6.375 780.0 61.772 14.447 31.638 -0.25345 0.41137 
6.400 780.0 58.284 14.515 31.982 -0.25702 0.41160 
6.425 780.0 49.554 14.560 31.381 -0.25341 0.41546 
6.450 780.0 44.246 14.516 30.571 -0.24682 0.41784 
6.475 780.0 37.839 14.443 31.647 -0.25345 0.41122 
6.500 780.0 33.812 14.557 30.440 -0.24650 0.41948 

# MINIMA:
0.600 376.0 32.347 2.076 0.534 -0.70116 -0.29239 

# MAXIMA:
6.500 3911.6 174.283 43.050 359.385 0.72070 0.99244 

# PEAKS:

# END SPECTRUM


# SPECTRUM:
5

# START TIME:
16:03:47

# END TIME:
16:14:17

# THETA ANGLE:
0.00 ø

# INCIDENCE ANGLE:
75.00 ø

# ACCUMULATION NUMBER:
1

# ELLIPSOMETRIC CONFIGURATION:
+90.00 øModulator
-45.00 øAnalyser

# INTEGRATION TIME:
500 ms

# FIRST POINT:
0.6000 eV

# LAST POINT:
6.5000 eV

# INCREMENT:
0.0250 eV

# NUMBER OF POINTS:
237

# DATA:
eV Hv S0 Psi Delta Is Ic 
0.600 1701.8 65.420 19.628 325.931 0.35447 0.52417 
0.625 1505.0 77.778 19.437 320.811 0.39657 0.48644 
0.650 1403.4 73.501 20.117 318.062 0.43168 0.48047 
0.675 1403.4 70.263 20.522 317.431 0.44421 0.48360 
0.700 1206.5 65.331 19.188 312.200 0.45990 0.41701 
0.725 1206.5 73.401 18.325 308.777 0.46536 0.37386 
0.750 1206.5 76.204 16.934 305.549 0.45341 0.32400 
0.775 1104.9 72.324 15.472 302.994 0.43127 0.28000 
0.800 723.9 61.171 13.491 300.005 0.39291 0.22689 
0.825 1022.4 68.341 11.485 297.953 0.34472 0.18293 
0.850 1022.4 64.626 8.905 296.201 0.27442 0.13504 
0.875 730.3 61.268 6.249 295.218 0.19577 0.09220 
0.900 927.1 72.296 3.898 307.267 0.10794 0.08213 
0.925 1028.7 70.053 1.851 348.306 0.01309 0.06324 
0.950 1028.7 62.455 3.159 48.300 -0.08216 0.07320 
0.975 831.9 74.758 5.766 61.341 -0.17542 0.09588 
1.000 1028.7 61.708 8.318 64.568 -0.25856 0.12295 
1.025 1028.7 67.809 10.791 63.752 -0.32990 0.16268 
1.050 730.3 81.703 13.126 61.352 -0.38817 0.21206 
1.075 1028.7 65.182 15.348 58.689 -0.43613 0.26529 
1.100 1028.7 73.041 17.533 55.762 -0.47496 0.32324 
1.125 1028.7 73.220 19.877 52.585 -0.50791 0.38854 
1.150 927.1 68.983 22.296 49.645 -0.53500 0.45460 
1.175 927.1 71.535 25.243 46.917 -0.56344 0.52695 
1.200 1028.7 67.449 28.775 43.960 -0.58577 0.60743 
1.225 736.6 59.828 31.878 40.392 -0.58121 0.68312 
1.250 552.5 63.242 34.214 36.667 -0.55534 0.74594 
1.275 952.5 73.647 37.196 32.440 -0.51663 0.81284 
1.300 952.5 75.537 39.468 27.152 -0.44787 0.87326 
1.325 1149.4 69.900 40.680 20.789 -0.35091 0.92428 
1.350 749.3 67.179 43.374 11.902 -0.20590 0.97693 
1.375 1251.0 71.999 45.000 2.380 -0.04160 1.00091 
1.400 1054.1 84.005 45.000 351.274 0.15179 0.98896 
1.425 2451.1 60.811 41.180 342.164 0.30358 0.94348 
1.450 3949.7 44.187 37.235 334.082 0.42113 0.86658 
1.475 780.0 0.000 0.000 0.000 0.00000 0.00000 
1.500 493.0 63.161 34.838 322.547 0.57025 0.74443 
1.525 591.0 71.674 31.865 318.327 0.59620 0.66980 
1.550 529.0 64.961 29.424 314.562 0.60974 0.60049 
1.575 572.0 66.349 26.699 310.975 0.60610 0.52642 
1.600 572.0 67.257 24.253 307.865 0.59132 0.45975 
1.625 521.0 71.806 21.548 304.473 0.56325 0.38672 
1.650 539.0 67.318 18.549 301.155 0.51619 0.31206 
1.675 529.0 66.827 15.598 298.280 0.45615 0.24540 
1.700 529.0 74.121 12.391 296.004 0.37674 0.18378 
1.725 513.0 66.618 9.159 295.682 0.28325 0.13621 
1.750 513.0 74.441 5.907 300.272 0.17681 0.10320 
1.775 499.0 66.566 3.113 324.582 0.06286 0.08839 
1.800 485.0 71.413 3.133 30.891 -0.05603 0.09365 
1.825 485.0 76.667 5.822 55.326 -0.16599 0.11483 
1.850 472.0 71.863 8.979 59.630 -0.26600 0.15588 
1.875 463.0 66.933 11.983 59.077 -0.34846 0.20874 
1.900 451.0 67.419 14.926 56.797 -0.41650 0.27259 
1.925 451.0 74.171 17.532 53.943 -0.46444 0.33814 
1.950 440.0 70.069 19.982 50.794 -0.49770 0.40600 
1.975 440.0 76.720 22.256 47.225 -0.51460 0.47610 
2.000 428.0 67.833 24.336 43.762 -0.51941 0.54235 
2.025 428.0 72.185 26.299 40.099 -0.51167 0.60765 
2.050 428.0 68.660 28.043 36.321 -0.49154 0.66865 
2.075 428.0 81.224 29.896 32.051 -0.45861 0.73248 
2.100 418.0 70.119 31.492 27.477 -0.41104 0.79038 
2.125 418.0 70.045 32.764 22.554 -0.34910 0.84055 
2.150 418.0 69.164 34.172 16.826 -0.26903 0.88963 
2.175 418.0 69.633 34.938 10.492 -0.17098 0.92325 
2.200 418.0 69.471 34.985 4.017 -0.06582 0.93721 
2.225 418.0 69.986 34.432 357.331 0.04343 0.93172 
2.250 418.0 75.595 33.401 351.148 0.14144 0.90820 
2.275 418.0 77.027 31.894 345.738 0.22103 0.86951 
2.300 408.0 66.045 30.038 341.039 0.28161 0.81967 
2.325 408.0 69.165 27.910 337.042 0.32269 0.76174 
2.350 408.0 74.534 25.803 334.148 0.34175 0.70532 
2.375 408.0 77.779 23.661 332.088 0.34414 0.64965 
2.400 408.0 79.151 21.468 330.842 0.33189 0.59487 
2.425 398.0 71.507 19.327 330.698 0.30570 0.54469 
2.450 390.0 70.495 17.375 331.638 0.27077 0.50157 
2.475 390.0 73.881 15.574 333.968 0.22701 0.46478 
2.500 377.0 71.114 13.986 338.284 0.17355 0.43574 
2.525 377.0 74.579 12.807 344.177 0.11787 0.41592 
2.550 377.0 69.289 12.032 351.545 0.05995 0.40331 
2.575 377.0 78.726 11.697 359.610 0.00270 0.39703 
2.600 377.0 72.251 12.091 7.471 -0.05326 0.40615 
2.625 365.0 69.154 12.645 14.082 -0.10394 0.41436 
2.650 358.0 70.000 13.607 18.826 -0.14757 0.43285 
2.675 358.0 59.048 14.580 21.946 -0.18210 0.45194 
2.700 368.0 69.483 15.846 23.964 -0.21338 0.48008 
2.725 368.0 66.469 17.197 24.841 -0.23731 0.51262 
2.750 368.0 70.918 18.405 24.901 -0.25229 0.54347 
2.775 368.0 61.587 19.323 24.398 -0.25797 0.56875 
2.800 368.0 64.125 20.393 23.304 -0.25843 0.59994 
2.825 368.0 63.162 21.253 21.975 -0.25284 0.62659 
2.850 368.0 61.273 22.042 20.226 -0.24052 0.65281 
2.875 377.0 72.091 22.736 18.387 -0.22487 0.67650 
2.900 377.0 70.897 23.183 16.457 -0.20505 0.69412 
2.925 377.0 70.144 23.610 14.424 -0.18282 0.71082 
2.950 377.0 70.349 23.807 12.262 -0.15686 0.72176 
2.975 377.0 68.930 23.940 10.118 -0.13030 0.73020 
3.000 377.0 66.708 23.849 7.984 -0.10272 0.73243 
3.025 377.0 64.344 23.734 6.127 -0.07865 0.73270 
3.050 377.0 60.395 23.346 4.500 -0.05710 0.72544 
3.075 387.0 71.291 22.976 3.017 -0.03782 0.71777 
3.100 373.0 72.347 22.470 1.800 -0.02219 0.70601 
3.125 373.0 71.250 22.012 0.900 -0.01091 0.69487 
3.150 373.0 66.685 21.469 0.305 -0.00362 0.68121 
3.175 373.0 63.863 20.781 0.047 -0.00054 0.66342 
3.200 373.0 60.458 20.176 0.129 -0.00145 0.64748 
3.225 381.0 68.583 19.703 0.526 -0.00583 0.63478 
3.250 381.0 68.940 19.258 1.232 -0.01339 0.62258 
3.275 381.0 65.108 18.845 2.287 -0.02440 0.61090 
3.300 381.0 61.985 18.449 3.558 -0.03726 0.59923 
3.325 391.0 70.039 18.260 5.097 -0.05287 0.59274 
3.350 391.0 63.648 18.196 6.758 -0.06982 0.58919 
3.375 391.0 65.466 18.216 8.232 -0.08504 0.58776 
3.400 391.0 65.654 18.300 9.500 -0.09840 0.58804 
3.425 391.0 65.748 18.401 10.674 -0.11096 0.58869 
3.450 391.0 66.349 18.668 11.583 -0.12177 0.59415 
3.475 391.0 64.156 18.842 12.291 -0.13013 0.59731 
3.500 391.0 60.950 19.045 12.793 -0.13660 0.60158 
3.525 391.0 60.061 19.317 13.166 -0.14220 0.60792 
3.550 400.0 68.188 19.555 13.396 -0.14615 0.61365 
3.575 400.0 65.645 19.721 13.525 -0.14857 0.61768 
3.600 400.0 65.880 19.921 13.570 -0.15032 0.62279 
3.625 400.0 63.945 20.070 13.504 -0.15054 0.62683 
3.650 400.0 62.474 20.277 13.362 -0.15025 0.63257 
3.675 409.0 72.003 20.327 13.247 -0.14929 0.63416 
3.700 409.0 71.137 20.486 13.047 -0.14801 0.63875 
3.725 409.0 68.538 20.530 12.858 -0.14617 0.64037 
3.750 409.0 67.653 20.624 12.634 -0.14421 0.64337 
3.775 409.0 65.254 20.631 12.421 -0.14186 0.64407 
3.800 409.0 62.272 20.683 12.248 -0.14019 0.64581 
3.825 409.0 59.533 20.755 12.084 -0.13874 0.64806 
3.850 421.0 70.320 20.663 11.930 -0.13650 0.64608 
3.875 421.0 63.321 20.684 11.816 -0.13533 0.64688 
3.900 430.0 67.643 20.628 11.722 -0.13396 0.64566 
3.925 430.0 61.607 20.575 11.659 -0.13298 0.64445 
3.950 440.0 68.496 20.563 11.642 -0.13272 0.64418 
3.975 440.0 64.162 20.530 11.671 -0.13288 0.64326 
4.000 450.0 70.516 20.498 11.688 -0.13289 0.64240 
4.025 450.0 64.894 20.404 11.812 -0.13377 0.63969 
4.050 450.0 61.454 20.475 11.835 -0.13442 0.64147 
4.075 463.0 70.736 20.362 11.962 -0.13522 0.63824 
4.100 463.0 65.395 20.354 12.110 -0.13683 0.63768 
4.125 463.0 61.221 20.339 12.242 -0.13821 0.63700 
4.150 475.0 69.699 20.367 12.381 -0.13992 0.63738 
4.175 475.0 65.133 20.320 12.580 -0.14185 0.63566 
4.200 475.0 59.867 20.349 12.662 -0.14293 0.63621 
4.225 475.0 58.688 20.367 12.971 -0.14647 0.63590 
4.250 487.0 68.012 20.327 13.103 -0.14770 0.63453 
4.275 487.0 64.332 20.358 13.273 -0.14976 0.63490 
4.300 471.0 69.773 20.397 13.412 -0.15155 0.63553 
4.325 471.0 74.675 20.319 13.549 -0.15257 0.63314 
4.350 471.0 76.639 20.124 13.784 -0.15394 0.62749 
4.375 462.0 67.367 20.292 13.955 -0.15690 0.63136 
4.400 462.0 69.105 20.402 13.962 -0.15767 0.63417 
4.425 462.0 70.813 20.293 14.144 -0.15898 0.63086 
4.450 462.0 73.266 20.372 14.214 -0.16026 0.63269 
4.475 462.0 72.129 20.493 14.294 -0.16194 0.63558 
4.500 462.0 71.960 20.565 14.210 -0.16146 0.63765 
4.525 462.0 72.090 20.426 14.362 -0.16225 0.63367 
4.550 462.0 71.683 20.568 14.462 -0.16429 0.63701 
4.575 462.0 71.407 20.482 14.496 -0.16410 0.63472 
4.600 462.0 70.732 20.733 14.426 -0.16496 0.64130 
4.625 462.0 68.204 20.789 14.535 -0.16656 0.64240 
4.650 462.0 65.377 20.783 14.522 -0.16637 0.64228 
4.675 462.0 64.411 20.631 14.614 -0.16639 0.63815 
4.700 462.0 63.666 20.584 14.750 -0.16760 0.63658 
4.725 462.0 58.659 20.760 14.554 -0.16658 0.64162 
4.750 475.0 72.565 20.778 14.545 -0.16660 0.64210 
4.775 475.0 67.642 20.804 14.545 -0.16676 0.64274 
4.800 475.0 67.221 20.812 14.744 -0.16905 0.64236 
4.825 475.0 65.562 20.702 14.847 -0.16947 0.63927 
4.850 475.0 61.977 20.847 14.703 -0.16882 0.64338 
4.875 475.0 60.284 20.877 14.809 -0.17021 0.64382 
4.900 486.0 65.641 21.058 14.778 -0.17106 0.64844 
4.925 486.0 65.843 20.716 14.919 -0.17037 0.63942 
4.950 486.0 62.993 20.799 15.076 -0.17267 0.64104 
4.975 486.0 60.780 20.825 15.092 -0.17303 0.64165 
5.000 486.0 60.982 20.813 15.137 -0.17346 0.64123 
5.025 500.0 71.157 20.979 15.130 -0.17450 0.64541 
5.050 500.0 69.024 20.989 15.124 -0.17451 0.64567 
5.075 500.0 68.196 20.855 15.361 -0.17626 0.64159 
5.100 500.0 64.694 20.856 15.296 -0.17554 0.64182 
5.125 500.0 61.699 21.011 15.378 -0.17752 0.64544 
5.150 500.0 62.132 20.912 15.422 -0.17733 0.64283 
5.175 515.0 72.143 20.884 15.515 -0.17818 0.64185 
5.200 515.0 67.373 20.888 15.515 -0.17820 0.64195 
5.225 515.0 65.280 20.926 15.639 -0.17986 0.64250 
5.250 515.0 64.149 20.971 15.797 -0.18195 0.64314 
5.275 526.0 72.591 21.066 15.784 -0.18247 0.64554 
5.300 526.0 68.612 20.879 16.043 -0.18405 0.64006 
5.325 526.0 67.258 21.076 15.870 -0.18351 0.64553 
5.350 526.0 63.042 20.921 16.094 -0.18493 0.64094 
5.375 526.0 63.696 21.039 16.075 -0.18556 0.64393 
5.400 526.0 59.354 20.996 16.163 -0.18624 0.64258 
5.425 526.0 58.092 21.130 16.144 -0.18699 0.64597 
5.450 539.0 66.902 21.089 16.207 -0.18740 0.64474 
5.475 539.0 64.836 20.883 16.374 -0.18778 0.63908 
5.500 539.0 62.210 21.117 16.331 -0.18900 0.64503 
5.525 539.0 59.081 21.047 16.579 -0.19127 0.64249 
5.550 556.0 74.301 21.200 16.345 -0.18976 0.64706 
5.575 556.0 69.667 21.152 16.455 -0.19066 0.64550 
5.600 556.0 64.880 21.135 16.680 -0.19306 0.64433 
5.625 556.0 64.412 21.083 16.786 -0.19387 0.64268 
5.650 556.0 59.391 21.149 16.681 -0.19318 0.64466 
5.675 573.0 71.273 20.896 16.961 -0.19441 0.63744 
5.700 573.0 67.418 21.076 17.152 -0.19791 0.64126 
5.725 573.0 62.533 21.187 16.688 -0.19354 0.64558 
5.750 573.0 59.298 21.162 17.008 -0.19695 0.64386 
5.775 587.0 64.380 21.214 16.979 -0.19702 0.64526 
5.800 587.0 62.258 21.018 17.122 -0.19713 0.63991 
5.825 599.0 68.725 21.214 17.120 -0.19860 0.64476 
5.850 599.0 64.447 21.288 17.316 -0.20137 0.64589 
5.875 611.0 69.600 21.179 17.237 -0.19966 0.64350 
5.900 611.0 60.872 21.234 17.554 -0.20364 0.64373 
5.925 625.0 69.643 21.263 17.349 -0.20156 0.64517 
5.950 625.0 60.872 21.396 17.288 -0.20188 0.64865 
5.975 643.0 71.664 21.378 17.526 -0.20444 0.64737 
6.000 643.0 66.199 21.303 17.440 -0.20289 0.64583 
6.025 643.0 59.190 21.382 17.712 -0.20657 0.64680 
6.050 662.0 68.409 21.216 17.665 -0.20474 0.64291 
6.075 662.0 63.375 21.392 17.803 -0.20767 0.64670 
6.100 662.0 56.455 21.248 17.922 -0.20788 0.64276 
6.125 681.0 65.092 21.501 17.794 -0.20843 0.64940 
6.150 681.0 58.173 21.566 17.743 -0.20835 0.65115 
6.175 700.0 66.625 21.399 18.031 -0.21030 0.64605 
6.200 700.0 63.731 21.451 17.920 -0.20946 0.64773 
6.225 715.0 67.740 21.268 17.829 -0.20700 0.64359 
6.250 715.0 63.287 21.573 17.802 -0.20907 0.65111 
6.275 715.0 57.468 21.486 17.994 -0.21057 0.64830 
6.300 739.0 67.251 21.442 18.157 -0.21206 0.64663 
6.325 739.0 61.040 21.475 18.273 -0.21364 0.64700 
6.350 756.0 67.244 21.241 18.446 -0.21369 0.64065 
6.375 756.0 60.136 21.584 17.746 -0.20852 0.65160 
6.400 777.0 68.144 21.540 18.110 -0.21231 0.64917 
6.425 777.0 60.382 21.350 18.279 -0.21270 0.64394 
6.450 780.0 53.118 21.634 17.660 -0.20794 0.65311 
6.475 780.0 46.132 21.275 18.236 -0.21161 0.64227 
6.500 780.0 39.847 21.018 17.556 -0.20197 0.63841 

# MINIMA:
0.600 358.0 0.000 0.000 0.000 -0.58577 0.00000 

# MAXIMA:
6.500 3949.7 84.005 45.000 359.610 0.60974 1.00091 

# PEAKS:

# END SPECTRUM

