## SPECTRUM TYPE:
Spectroscopic

## DATE:
11/9/2011

## COMMENTS:

## NUMBER OF SPECTRUM:
5

## ELLIPSOMETRIC CONFIGURATION:
+45.00 øModulator
-45.00 øAnalyser

## UNIT:
eV


# SPECTRUM:
1

# START TIME:
17:11:25

# END TIME:
17:23:07

# THETA ANGLE:
0.00 ø

# INCIDENCE ANGLE:
55.00 ø

# ACCUMULATION NUMBER:
1

# ELLIPSOMETRIC CONFIGURATION:
+45.00 øModulator
-45.00 øAnalyser

# INTEGRATION TIME:
500 ms

# FIRST POINT:
0.6000 eV

# LAST POINT:
6.5000 eV

# INCREMENT:
0.0250 eV

# NUMBER OF POINTS:
237

# DATA:
eV Hv S0 Psi Delta Is Ic 
0.600 1701.8 60.230 27.492 330.496 0.40334 0.57380 
0.625 1600.2 78.104 29.022 332.098 0.39705 0.52926 
0.650 1498.6 74.543 27.883 331.166 0.39871 0.56259 
0.675 1498.6 72.194 28.592 332.452 0.38868 0.54194 
0.700 1301.8 69.183 28.521 334.653 0.35921 0.54401 
0.725 1200.2 65.735 30.010 338.432 0.31843 0.49969 
0.750 1200.2 69.179 29.449 341.058 0.27795 0.51655 
0.775 1098.6 68.133 29.176 344.032 0.23418 0.52470 
0.800 800.1 74.366 29.613 347.649 0.18378 0.51164 
0.825 997.0 65.435 29.350 351.273 0.12965 0.51951 
0.850 997.0 62.931 29.496 355.111 0.07304 0.51517 
0.875 800.1 80.291 29.640 358.942 0.01587 0.51084 
0.900 901.7 75.234 29.386 2.966 -0.04425 0.51844 
0.925 1003.3 74.712 29.600 6.841 -0.10232 0.51205 
0.950 1003.3 65.881 29.429 10.733 -0.15939 0.51716 
0.975 806.5 78.842 29.459 14.578 -0.21556 0.51627 
1.000 1003.3 63.955 29.541 18.195 -0.26788 0.51380 
1.025 1003.3 65.769 29.270 21.786 -0.31658 0.52191 
1.050 704.9 69.996 29.293 24.962 -0.36016 0.52123 
1.075 1104.9 76.936 29.052 28.283 -0.40228 0.52839 
1.100 1104.9 79.576 28.754 31.561 -0.44147 0.53718 
1.125 1104.9 73.664 28.591 34.854 -0.48028 0.54198 
1.150 1104.9 78.031 28.566 38.352 -0.52117 0.54269 
1.175 1104.9 64.266 28.309 45.038 -0.59084 0.55022 
1.200 1403.4 62.099 28.220 58.339 -0.70929 0.55280 
1.225 1301.8 73.968 29.794 73.617 -0.82739 0.50621 
1.250 1003.3 77.331 33.019 74.029 -0.87854 0.40613 
1.275 2000.3 63.773 37.387 57.429 -0.81314 0.26263 
1.300 2997.2 62.751 42.975 28.892 -0.48195 0.07063 
1.325 3994.2 57.710 45.316 357.512 0.04340 -0.01103 
1.350 2292.4 78.099 42.574 318.315 0.66265 0.08458 
1.375 2292.4 63.436 37.983 294.414 0.88341 0.24249 
1.400 1790.7 79.737 33.026 270.000 0.91544 0.40591 
1.425 3987.8 41.415 30.906 285.661 0.84867 0.47238 
1.450 3987.8 23.482 28.674 294.008 0.76913 0.53953 
1.475 745.0 74.666 26.412 302.865 0.66926 0.60426 
1.500 546.0 67.985 26.721 310.360 0.61206 0.59565 
1.525 640.0 74.209 26.431 317.681 0.53670 0.60375 
1.550 554.0 56.383 25.923 323.283 0.47013 0.61777 
1.575 599.0 65.522 26.079 329.863 0.39648 0.61350 
1.600 599.0 74.607 25.860 335.234 0.32884 0.61950 
1.625 536.0 72.665 26.066 340.758 0.26016 0.61386 
1.650 547.0 68.049 26.098 346.449 0.18514 0.61295 
1.675 534.0 69.973 26.215 351.717 0.11418 0.60972 
1.700 520.0 68.117 26.055 357.040 0.04075 0.61414 
1.725 520.0 77.380 26.025 2.272 -0.03126 0.61496 
1.750 504.0 70.268 25.880 7.448 -0.10181 0.61895 
1.775 495.0 68.257 25.786 12.604 -0.17095 0.62153 
1.800 482.0 70.367 25.530 17.990 -0.24022 0.62851 
1.825 482.0 73.864 25.176 23.435 -0.30623 0.63808 
1.850 482.0 78.399 24.891 28.931 -0.36939 0.64569 
1.875 473.0 68.952 24.427 34.731 -0.42902 0.65798 
1.900 473.0 70.825 24.083 40.789 -0.48674 0.66697 
1.925 473.0 71.813 23.555 47.448 -0.53973 0.68058 
1.950 473.0 69.818 23.174 54.483 -0.58893 0.69028 
1.975 473.0 65.969 22.720 62.607 -0.63263 0.70165 
2.000 473.0 60.234 22.205 72.805 -0.66852 0.71434 
2.025 495.0 70.194 21.750 86.920 -0.68737 0.72536 
2.050 508.0 68.118 21.431 79.253 -0.66830 0.73300 
2.075 508.0 63.025 21.007 58.651 -0.57160 0.74298 
2.100 522.0 68.722 20.260 32.997 -0.35383 0.76018 
2.125 522.0 65.784 19.348 3.025 -0.03299 0.78047 
2.150 522.0 70.038 18.525 331.178 0.29047 0.79810 
2.175 510.0 71.100 17.994 301.832 0.49925 0.80913 
2.200 494.0 70.148 17.932 279.873 0.57719 0.81041 
2.225 478.0 69.808 18.175 282.470 0.57873 0.80541 
2.250 464.0 69.775 18.578 296.180 0.54203 0.79699 
2.275 452.0 68.656 18.966 307.297 0.48903 0.78873 
2.300 444.0 70.702 19.337 316.631 0.42910 0.78072 
2.325 434.0 68.443 19.703 324.939 0.36466 0.77268 
2.350 434.0 76.765 20.036 331.981 0.30240 0.76524 
2.375 422.0 68.926 20.282 338.122 0.24232 0.75968 
2.400 422.0 74.688 20.509 344.017 0.18071 0.75451 
2.425 413.0 69.391 20.660 349.453 0.12085 0.75104 
2.450 404.0 68.706 20.713 354.418 0.06436 0.74981 
2.475 404.0 73.601 20.712 359.036 0.01113 0.74984 
2.500 384.0 70.087 20.575 3.796 -0.04356 0.75299 
2.525 384.0 73.718 20.277 8.290 -0.09375 0.75979 
2.550 384.0 69.689 20.069 12.513 -0.13966 0.76450 
2.575 384.0 76.191 19.930 16.512 -0.18216 0.76761 
2.600 384.0 67.629 19.119 20.980 -0.22161 0.78544 
2.625 375.0 67.649 18.815 24.748 -0.25560 0.79197 
2.650 375.0 69.942 18.209 28.605 -0.28423 0.80472 
2.675 384.0 68.515 17.424 32.448 -0.30658 0.82067 
2.700 392.0 69.522 16.819 35.615 -0.32258 0.83256 
2.725 392.0 61.565 15.351 40.430 -0.33111 0.85984 
2.750 392.0 61.214 14.133 44.076 -0.32942 0.88076 
2.775 408.0 67.784 12.911 46.844 -0.31775 0.90015 
2.800 408.0 62.303 11.545 48.596 -0.29415 0.91989 
2.825 417.0 69.839 10.118 48.758 -0.26008 0.93828 
2.850 417.0 63.793 8.529 46.502 -0.21279 0.95601 
2.875 417.0 60.899 6.470 46.003 -0.16110 0.97460 
2.900 417.0 59.875 6.414 29.468 -0.10922 0.97504 
2.925 426.0 69.069 5.552 18.264 -0.06036 0.98128 
2.950 426.0 70.542 5.899 4.080 -0.01455 0.97888 
2.975 426.0 69.560 6.801 355.201 0.01968 0.97195 
3.000 426.0 71.242 8.102 350.716 0.04502 0.96028 
3.025 426.0 72.390 9.200 349.522 0.05740 0.94888 
3.050 426.0 71.724 10.189 349.604 0.06284 0.93741 
3.075 426.0 72.775 11.109 350.893 0.05985 0.92576 
3.100 406.0 68.892 11.748 352.629 0.05115 0.91708 
3.125 406.0 71.459 12.502 354.825 0.03813 0.90628 
3.150 406.0 70.638 13.152 357.181 0.02179 0.89646 
3.175 406.0 69.490 13.760 359.752 0.00200 0.88685 
3.200 406.0 67.686 14.115 2.296 -0.01895 0.88106 
3.225 406.0 66.911 14.578 4.533 -0.03851 0.87330 
3.250 406.0 65.469 14.625 7.044 -0.05991 0.87250 
3.275 406.0 63.566 14.713 9.664 -0.08247 0.87100 
3.300 406.0 60.021 14.833 12.070 -0.10350 0.86892 
3.325 418.0 68.733 14.797 14.475 -0.12344 0.86955 
3.350 418.0 64.260 14.560 16.998 -0.14226 0.87361 
3.375 418.0 63.069 14.342 19.014 -0.15638 0.87729 
3.400 418.0 62.957 14.233 20.491 -0.16685 0.87910 
3.425 418.0 61.937 13.925 21.941 -0.17456 0.88417 
3.450 418.0 59.542 13.572 23.154 -0.17939 0.88986 
3.475 429.0 68.429 13.410 23.554 -0.18030 0.89243 
3.500 429.0 64.694 13.101 24.211 -0.18108 0.89724 
3.525 429.0 61.743 12.699 24.733 -0.17945 0.90335 
3.550 429.0 58.767 12.583 24.500 -0.17634 0.90508 
3.575 440.0 67.803 12.292 24.453 -0.17221 0.90935 
3.600 440.0 64.681 12.087 24.010 -0.16663 0.91230 
3.625 440.0 62.810 11.934 23.617 -0.16211 0.91448 
3.650 440.0 60.793 11.687 23.150 -0.15597 0.91794 
3.675 440.0 59.414 11.577 22.405 -0.14987 0.91945 
3.700 440.0 58.238 11.545 21.811 -0.14572 0.91988 
3.725 452.0 69.939 11.751 20.657 -0.14068 0.91704 
3.750 452.0 67.381 11.587 20.225 -0.13604 0.91932 
3.775 452.0 65.333 11.855 19.424 -0.13372 0.91559 
3.800 452.0 62.839 11.762 19.184 -0.13115 0.91690 
3.825 462.0 70.621 11.878 18.830 -0.13002 0.91527 
3.850 462.0 65.997 12.097 18.388 -0.12928 0.91216 
3.875 462.0 60.727 12.135 18.377 -0.12958 0.91162 
3.900 474.0 67.437 12.321 18.208 -0.13028 0.90893 
3.925 474.0 61.832 12.416 18.356 -0.13225 0.90755 
3.950 486.0 68.536 12.494 18.486 -0.13394 0.90639 
3.975 486.0 64.479 12.592 18.754 -0.13681 0.90494 
4.000 486.0 59.969 12.663 19.068 -0.13975 0.90389 
4.025 500.0 68.764 12.817 19.371 -0.14349 0.90158 
4.050 500.0 64.397 12.793 19.631 -0.14509 0.90193 
4.075 500.0 59.754 12.991 19.814 -0.14850 0.89893 
4.100 512.0 65.997 13.008 20.200 -0.15146 0.89867 
4.125 512.0 60.902 12.974 20.702 -0.15468 0.89919 
4.150 524.0 67.875 13.112 21.091 -0.15901 0.89708 
4.175 524.0 63.276 13.077 21.307 -0.16016 0.89761 
4.200 524.0 60.478 12.936 21.997 -0.16344 0.89977 
4.225 539.0 70.047 12.945 22.419 -0.16653 0.89963 
4.250 539.0 66.314 12.838 22.893 -0.16855 0.90126 
4.275 539.0 63.266 12.999 22.911 -0.17064 0.89881 
4.300 513.0 71.081 13.642 22.200 -0.17320 0.88874 
4.325 513.0 74.489 13.230 23.243 -0.17584 0.89524 
4.350 513.0 77.106 13.685 22.606 -0.17672 0.88806 
4.375 513.0 79.454 13.278 23.349 -0.17719 0.89449 
4.400 502.0 68.098 13.365 23.341 -0.17820 0.89314 
4.425 502.0 69.232 13.706 22.683 -0.17754 0.88772 
4.450 502.0 70.405 13.654 22.948 -0.17888 0.88855 
4.475 502.0 70.381 12.789 24.443 -0.17865 0.90200 
4.500 502.0 70.037 13.496 23.210 -0.17888 0.89106 
4.525 502.0 69.057 13.408 23.409 -0.17923 0.89245 
4.550 502.0 68.870 13.102 23.972 -0.17941 0.89722 
4.575 502.0 67.615 13.315 23.755 -0.18056 0.89392 
4.600 502.0 66.295 13.242 23.793 -0.17992 0.89506 
4.625 502.0 63.864 13.302 23.683 -0.17988 0.89412 
4.650 502.0 63.083 12.698 25.001 -0.18126 0.90337 
4.675 502.0 59.916 13.468 23.746 -0.18242 0.89151 
4.700 502.0 58.633 12.968 24.604 -0.18209 0.89929 
4.725 515.0 69.157 12.994 24.573 -0.18222 0.89888 
4.750 515.0 66.310 13.060 24.583 -0.18315 0.89787 
4.775 515.0 63.456 13.186 24.308 -0.18285 0.89593 
4.800 515.0 61.245 13.052 25.019 -0.18608 0.89800 
4.825 515.0 58.726 13.075 24.860 -0.18527 0.89765 
4.850 529.0 68.990 12.947 25.293 -0.18658 0.89961 
4.875 529.0 65.969 13.092 25.206 -0.18792 0.89738 
4.900 529.0 64.314 13.102 25.309 -0.18878 0.89722 
4.925 529.0 61.436 13.597 24.542 -0.18982 0.88946 
4.950 529.0 60.174 13.015 25.808 -0.19106 0.89856 
4.975 541.0 68.287 13.513 24.900 -0.19132 0.89080 
5.000 541.0 66.639 13.205 25.709 -0.19295 0.89564 
5.025 541.0 63.928 13.633 24.915 -0.19300 0.88889 
5.050 541.0 62.118 12.887 26.431 -0.19355 0.90052 
5.075 541.0 59.817 13.309 26.032 -0.19663 0.89402 
5.100 552.0 67.152 13.229 26.198 -0.19669 0.89527 
5.125 552.0 64.749 13.611 25.579 -0.19751 0.88924 
5.150 552.0 61.862 13.623 25.557 -0.19750 0.88906 
5.175 565.0 70.437 13.402 26.162 -0.19882 0.89255 
5.200 565.0 67.421 13.355 26.425 -0.20003 0.89329 
5.225 565.0 64.160 13.283 26.785 -0.20154 0.89442 
5.250 565.0 61.990 13.743 26.051 -0.20269 0.88713 
5.275 565.0 59.344 13.123 27.413 -0.20360 0.89691 
5.300 578.0 68.306 13.783 26.247 -0.20465 0.88649 
5.325 578.0 65.664 13.648 26.517 -0.20475 0.88864 
5.350 578.0 62.459 13.506 26.986 -0.20610 0.89091 
5.375 590.0 70.549 13.218 27.538 -0.20583 0.89543 
5.400 590.0 67.914 13.444 27.320 -0.20756 0.89190 
5.425 590.0 65.133 13.290 27.841 -0.20897 0.89430 
5.450 590.0 63.132 13.334 28.020 -0.21085 0.89362 
5.475 590.0 60.692 13.230 28.009 -0.20924 0.89525 
5.500 603.0 67.827 13.268 28.347 -0.21213 0.89465 
5.525 603.0 64.917 13.147 28.528 -0.21157 0.89653 
5.550 603.0 62.013 13.453 28.081 -0.21301 0.89176 
5.575 603.0 60.147 13.487 27.993 -0.21290 0.89121 
5.600 619.0 70.032 13.712 27.842 -0.21510 0.88762 
5.625 619.0 66.044 13.726 28.115 -0.21725 0.88740 
5.650 619.0 62.129 13.349 28.625 -0.21524 0.89339 
5.675 634.0 70.766 13.436 28.924 -0.21860 0.89202 
5.700 634.0 66.467 13.450 28.419 -0.21532 0.89180 
5.725 634.0 62.788 13.421 29.142 -0.21988 0.89226 
5.750 634.0 58.811 13.691 28.525 -0.21963 0.88796 
5.775 651.0 66.831 13.560 29.390 -0.22372 0.89005 
5.800 651.0 62.369 13.584 29.509 -0.22490 0.88968 
5.825 666.0 68.764 13.822 28.939 -0.22451 0.88585 
5.850 666.0 64.257 13.602 29.743 -0.22680 0.88938 
5.875 681.0 70.730 13.465 29.648 -0.22404 0.89156 
5.900 681.0 64.522 13.795 29.424 -0.22752 0.88629 
5.925 681.0 59.153 13.837 29.641 -0.22969 0.88561 
5.950 702.0 68.349 13.473 29.973 -0.22639 0.89143 
5.975 702.0 62.180 13.268 30.470 -0.22654 0.89466 
6.000 718.0 67.303 13.619 29.986 -0.22876 0.88911 
6.025 733.0 71.320 13.545 30.324 -0.22992 0.89030 
6.050 733.0 65.784 13.629 30.344 -0.23138 0.88895 
6.075 747.0 69.059 13.701 30.589 -0.23420 0.88780 
6.100 747.0 63.466 13.760 29.896 -0.23031 0.88684 
6.125 765.0 68.974 13.377 30.591 -0.22908 0.89295 
6.150 765.0 63.774 14.265 29.090 -0.23222 0.87856 
6.175 780.0 67.626 13.604 31.059 -0.23590 0.88935 
6.200 780.0 62.801 14.356 29.760 -0.23847 0.87704 
6.225 780.0 57.786 14.000 30.304 -0.23690 0.88294 
6.250 780.0 53.083 14.318 29.197 -0.23379 0.87768 
6.275 780.0 49.176 13.432 31.210 -0.23415 0.89209 
6.300 780.0 45.471 14.029 30.168 -0.23637 0.88247 
6.325 780.0 41.386 13.990 30.333 -0.23694 0.88311 
6.350 780.0 37.361 13.499 31.020 -0.23395 0.89102 
6.375 780.0 33.352 13.733 31.049 -0.23788 0.88729 
6.400 780.0 30.226 14.651 30.462 -0.24812 0.87205 
6.425 780.0 27.161 13.815 31.843 -0.24469 0.88595 
6.450 780.0 23.579 14.889 28.851 -0.23964 0.86796 
6.475 780.0 20.592 15.295 28.271 -0.24104 0.86083 
6.500 780.0 17.887 13.971 29.423 -0.23018 0.88343 

# MINIMA:
0.600 375.0 17.887 5.552 2.272 -0.87854 -0.01103 

# MAXIMA:
6.500 3994.2 80.291 45.316 359.752 0.91544 0.98128 

# PEAKS:

# END SPECTRUM


# SPECTRUM:
2

# START TIME:
17:23:51

# END TIME:
17:34:22

# THETA ANGLE:
0.00 ø

# INCIDENCE ANGLE:
60.00 ø

# ACCUMULATION NUMBER:
1

# ELLIPSOMETRIC CONFIGURATION:
+45.00 øModulator
-45.00 øAnalyser

# INTEGRATION TIME:
500 ms

# FIRST POINT:
0.6000 eV

# LAST POINT:
6.5000 eV

# INCREMENT:
0.0250 eV

# NUMBER OF POINTS:
237

# DATA:
eV Hv S0 Psi Delta Is Ic 
0.600 1701.8 62.549 25.345 324.250 0.45205 0.63352 
0.625 1505.0 72.595 24.845 322.203 0.46735 0.64692 
0.650 1403.4 69.512 25.089 321.474 0.47839 0.64040 
0.675 1403.4 67.748 24.142 320.205 0.47777 0.66543 
0.700 1301.8 76.759 24.667 324.600 0.43939 0.65165 
0.725 1200.2 73.501 24.439 326.845 0.41199 0.65765 
0.750 1200.2 76.615 25.073 331.944 0.36106 0.64084 
0.775 1098.6 75.684 25.054 336.109 0.31074 0.64133 
0.800 704.9 62.492 24.692 340.266 0.25631 0.65099 
0.825 1003.3 72.933 25.420 345.729 0.19114 0.63148 
0.850 1003.3 69.687 25.001 350.544 0.12586 0.64276 
0.875 704.9 64.257 24.931 355.908 0.05455 0.64462 
0.900 806.5 62.484 25.053 1.103 -0.01477 0.64136 
0.925 908.1 64.435 25.127 6.408 -0.08581 0.63938 
0.950 1009.7 73.423 25.373 11.517 -0.15460 0.63277 
0.975 711.2 61.478 25.225 17.003 -0.22548 0.63675 
1.000 1009.7 72.292 24.750 22.347 -0.28912 0.64944 
1.025 1009.7 74.945 25.087 26.876 -0.34718 0.64047 
1.050 711.2 79.925 25.247 31.274 -0.40054 0.63616 
1.075 1009.7 68.197 25.141 35.686 -0.44870 0.63901 
1.100 1009.7 71.087 25.581 39.214 -0.49245 0.62712 
1.125 1009.7 66.133 25.225 44.397 -0.53946 0.63676 
1.150 1009.7 71.995 25.501 48.885 -0.58551 0.62930 
1.175 1009.7 62.380 25.539 57.100 -0.65323 0.62825 
1.200 1308.1 66.911 26.668 68.124 -0.74440 0.59711 
1.225 1111.3 71.741 28.784 75.557 -0.81736 0.53629 
1.250 812.8 71.036 31.934 68.942 -0.83782 0.44045 
1.275 1511.3 69.383 35.776 56.499 -0.79102 0.31645 
1.300 1708.2 66.615 40.547 38.177 -0.61064 0.15480 
1.325 2406.7 61.703 44.156 16.084 -0.27693 0.02944 
1.350 1606.6 76.419 44.960 346.268 0.23738 0.00139 
1.375 2006.6 64.326 42.168 323.069 0.59792 0.09871 
1.400 1606.6 72.964 37.037 300.791 0.82606 0.27441 
1.425 3905.3 41.981 33.456 290.232 0.86314 0.39216 
1.450 3905.3 23.521 30.013 283.481 0.84239 0.49961 
1.475 780.0 112.278 26.836 286.742 0.77148 0.59242 
1.500 540.0 66.563 25.324 287.585 0.73713 0.63408 
1.525 620.0 63.306 23.731 294.999 0.66780 0.67608 
1.550 569.0 73.678 22.914 302.575 0.60442 0.69682 
1.575 594.0 65.713 22.402 311.069 0.53127 0.70953 
1.600 594.0 75.272 21.822 318.774 0.45484 0.72365 
1.625 530.0 72.892 21.664 326.449 0.37923 0.72744 
1.650 541.0 67.956 21.417 334.417 0.29358 0.73334 
1.675 527.0 69.052 21.434 341.842 0.21201 0.73292 
1.700 515.0 69.615 21.334 349.373 0.12499 0.73530 
1.725 505.0 68.188 21.215 356.852 0.03705 0.73809 
1.750 505.0 78.953 21.120 4.128 -0.04839 0.74034 
1.775 489.0 69.577 20.923 11.466 -0.13261 0.74495 
1.800 474.0 70.225 20.818 19.192 -0.21841 0.74738 
1.825 474.0 74.374 20.750 26.532 -0.29599 0.74897 
1.850 465.0 69.682 20.680 34.061 -0.37009 0.75057 
1.875 465.0 71.942 20.613 41.518 -0.43685 0.75211 
1.900 465.0 77.116 20.642 49.259 -0.49990 0.75146 
1.925 465.0 78.964 20.596 57.117 -0.55307 0.75250 
1.950 457.0 70.006 20.588 65.647 -0.59980 0.75268 
1.975 457.0 69.547 20.810 74.250 -0.63925 0.74756 
2.000 457.0 66.571 21.137 82.996 -0.66765 0.73994 
2.025 457.0 59.438 21.530 85.099 -0.68025 0.73065 
2.050 477.0 68.807 22.194 72.703 -0.66789 0.71461 
2.075 477.0 68.159 22.925 58.387 -0.61104 0.69654 
2.100 477.0 61.138 23.688 41.632 -0.48883 0.67719 
2.125 490.0 68.604 23.950 23.083 -0.29090 0.67042 
2.150 490.0 66.321 23.568 2.400 -0.03069 0.68025 
2.175 490.0 70.432 22.367 340.997 0.22918 0.71037 
2.200 490.0 80.497 20.742 321.097 0.41599 0.74915 
2.225 471.0 71.052 19.122 302.898 0.51974 0.78539 
2.250 459.0 70.000 17.605 286.337 0.55329 0.81705 
2.275 447.0 68.057 16.555 275.557 0.54367 0.83763 
2.300 439.0 69.216 15.693 282.502 0.50845 0.85368 
2.325 431.0 69.460 15.073 294.404 0.45734 0.86475 
2.350 431.0 77.661 14.780 305.674 0.40076 0.86984 
2.375 420.0 70.299 14.627 315.797 0.34070 0.87247 
2.400 420.0 76.690 14.448 325.207 0.27573 0.87550 
2.425 409.0 69.053 14.422 334.322 0.20905 0.87594 
2.450 401.0 70.046 14.713 342.803 0.14526 0.87099 
2.475 401.0 75.114 14.359 350.004 0.08341 0.87699 
2.500 378.0 72.287 14.213 357.797 0.01830 0.87943 
2.525 378.0 76.681 14.151 4.953 -0.04093 0.88047 
2.550 378.0 73.465 13.998 11.947 -0.09717 0.88298 
2.575 370.0 69.051 14.047 18.238 -0.14739 0.88217 
2.600 370.0 62.475 13.628 25.233 -0.19523 0.88898 
2.625 370.0 73.976 13.730 31.096 -0.23817 0.88733 
2.650 363.0 68.634 13.205 37.871 -0.27305 0.89563 
2.675 372.0 69.220 12.898 43.721 -0.30075 0.90036 
2.700 372.0 61.422 12.749 48.410 -0.32197 0.90259 
2.725 383.0 67.825 11.960 56.646 -0.33868 0.91411 
2.750 383.0 68.526 11.320 63.552 -0.34467 0.92294 
2.775 393.0 69.422 10.589 70.270 -0.34005 0.93246 
2.800 393.0 64.952 10.047 71.837 -0.32645 0.93913 
2.825 393.0 62.009 8.785 90.000 -0.30316 0.95335 
2.850 403.0 68.700 7.898 80.618 -0.26857 0.96224 
2.875 403.0 64.715 6.812 74.204 -0.22666 0.97186 
2.900 403.0 63.084 5.472 72.226 -0.18079 0.98181 
2.925 403.0 60.930 5.189 48.121 -0.13412 0.98364 
2.950 403.0 61.639 2.877 58.197 -0.08522 0.99496 
2.975 403.0 59.898 2.382 31.217 -0.04304 0.99655 
3.000 403.0 59.477 1.269 8.322 -0.00641 0.99902 
3.025 403.0 59.581 2.182 345.173 0.01947 0.99710 
3.050 412.0 69.545 1.612 320.345 0.03588 0.99842 
3.075 412.0 69.883 2.675 331.379 0.04467 0.99564 
3.100 398.0 71.347 2.873 332.609 0.04606 0.99498 
3.125 398.0 72.980 4.361 344.350 0.04090 0.98844 
3.150 398.0 72.031 4.800 349.545 0.03026 0.98600 
3.175 398.0 71.108 5.916 355.792 0.01504 0.97875 
3.200 398.0 69.406 6.484 0.558 -0.00219 0.97450 
3.225 398.0 68.164 6.974 4.978 -0.02092 0.97051 
3.250 398.0 67.230 7.088 9.830 -0.04181 0.96955 
3.275 398.0 65.771 7.466 14.628 -0.06507 0.96623 
3.300 398.0 62.521 7.859 18.717 -0.08694 0.96260 
3.325 408.0 69.512 8.196 22.765 -0.10920 0.95935 
3.350 408.0 65.171 7.981 28.584 -0.13158 0.96144 
3.375 408.0 64.623 7.882 33.414 -0.14961 0.96239 
3.400 408.0 64.550 7.982 36.529 -0.16371 0.96143 
3.425 408.0 63.589 7.849 40.132 -0.17439 0.96270 
3.450 408.0 61.550 7.683 43.505 -0.18243 0.96425 
3.475 417.0 69.549 7.851 43.955 -0.18786 0.96268 
3.500 417.0 66.084 7.670 46.133 -0.19073 0.96437 
3.525 417.0 63.238 7.354 49.158 -0.19207 0.96723 
3.550 417.0 60.783 7.025 51.791 -0.19076 0.97008 
3.575 428.0 70.222 7.151 49.930 -0.18904 0.96901 
3.600 428.0 67.760 6.846 51.948 -0.18640 0.97158 
3.625 428.0 65.570 6.816 50.654 -0.18226 0.97183 
3.650 428.0 63.533 6.469 52.314 -0.17720 0.97461 
3.675 428.0 61.534 6.105 54.946 -0.17312 0.97738 
3.700 428.0 60.212 6.027 53.580 -0.16803 0.97795 
3.725 437.0 68.631 5.993 51.816 -0.16324 0.97820 
3.750 437.0 66.555 5.884 51.065 -0.15864 0.97898 
3.775 437.0 64.871 5.913 49.390 -0.15558 0.97878 
3.800 437.0 61.827 5.926 47.708 -0.15192 0.97868 
3.825 437.0 58.626 6.146 44.653 -0.14961 0.97708 
3.850 450.0 68.013 6.157 43.931 -0.14797 0.97699 
3.875 450.0 62.373 6.184 43.459 -0.14733 0.97679 
3.900 460.0 67.304 6.393 41.863 -0.14770 0.97520 
3.925 460.0 61.838 6.226 43.321 -0.14794 0.97648 
3.950 472.0 68.631 6.561 41.041 -0.14906 0.97389 
3.975 472.0 63.950 6.666 40.892 -0.15095 0.97305 
4.000 472.0 59.201 6.750 41.112 -0.15351 0.97237 
4.025 486.0 68.322 6.848 41.089 -0.15562 0.97156 
4.050 486.0 63.847 6.941 41.201 -0.15803 0.97079 
4.075 486.0 59.625 7.130 40.746 -0.16078 0.96919 
4.100 499.0 67.324 7.132 41.748 -0.16406 0.96917 
4.125 499.0 62.036 7.203 42.059 -0.16667 0.96856 
4.150 511.0 69.665 7.145 43.526 -0.17000 0.96906 
4.175 511.0 65.124 7.303 43.358 -0.17313 0.96768 
4.200 511.0 61.690 7.203 45.076 -0.17615 0.96856 
4.225 522.0 69.192 7.166 46.292 -0.17894 0.96888 
4.250 522.0 65.781 7.296 46.389 -0.18242 0.96774 
4.275 522.0 61.662 7.396 46.084 -0.18391 0.96686 
4.300 496.0 70.948 7.610 45.623 -0.18764 0.96492 
4.325 496.0 74.360 8.301 41.868 -0.19069 0.95831 
4.350 496.0 76.921 8.814 39.401 -0.19222 0.95304 
4.375 496.0 78.385 9.291 37.148 -0.19244 0.94786 
4.400 486.0 69.466 8.372 42.526 -0.19474 0.95760 
4.425 486.0 70.025 8.424 42.222 -0.19477 0.95708 
4.450 486.0 70.831 8.758 40.533 -0.19559 0.95364 
4.475 486.0 70.483 8.808 39.992 -0.19450 0.95310 
4.500 486.0 70.167 8.527 42.004 -0.19626 0.95603 
4.525 486.0 69.858 9.016 39.361 -0.19631 0.95089 
4.550 486.0 69.412 8.617 42.121 -0.19870 0.95511 
4.575 486.0 67.358 8.793 40.857 -0.19765 0.95327 
4.600 486.0 66.155 8.709 41.526 -0.19845 0.95415 
4.625 486.0 64.476 7.985 45.986 -0.19787 0.96141 
4.650 486.0 62.711 8.868 40.645 -0.19842 0.95247 
4.675 486.0 60.856 9.212 39.086 -0.19927 0.94874 
4.700 486.0 59.041 8.391 43.871 -0.20009 0.95741 
4.725 497.0 67.816 8.742 41.964 -0.20090 0.95380 
4.750 497.0 64.611 8.317 45.026 -0.20251 0.95815 
4.775 497.0 62.278 8.288 44.805 -0.20103 0.95845 
4.800 497.0 60.599 9.013 41.064 -0.20329 0.95091 
4.825 508.0 68.170 9.045 40.754 -0.20271 0.95057 
4.850 508.0 65.031 8.643 43.476 -0.20445 0.95483 
4.875 508.0 62.657 8.501 44.346 -0.20439 0.95629 
4.900 508.0 60.564 8.872 42.730 -0.20681 0.95242 
4.925 521.0 70.407 8.315 46.398 -0.20724 0.95818 
4.950 521.0 67.820 8.935 42.516 -0.20737 0.95176 
4.975 521.0 66.488 8.592 44.728 -0.20792 0.95536 
5.000 521.0 64.786 8.946 42.930 -0.20925 0.95164 
5.025 521.0 61.990 8.715 44.631 -0.21045 0.95408 
5.050 521.0 59.726 9.052 43.115 -0.21238 0.95050 
5.075 534.0 69.207 8.817 44.644 -0.21288 0.95301 
5.100 534.0 66.787 8.945 43.876 -0.21291 0.95165 
5.125 534.0 64.418 9.049 43.715 -0.21467 0.95053 
5.150 534.0 62.084 9.254 42.917 -0.21615 0.94828 
5.175 545.0 69.021 9.211 43.728 -0.21844 0.94875 
5.200 545.0 66.337 9.384 42.746 -0.21838 0.94683 
5.225 545.0 63.104 8.212 50.688 -0.21876 0.95920 
5.250 545.0 60.903 8.699 47.502 -0.22045 0.95425 
5.275 557.0 68.499 8.784 47.333 -0.22193 0.95336 
5.300 557.0 65.391 9.232 44.325 -0.22129 0.94853 
5.325 557.0 63.642 8.808 47.580 -0.22342 0.95310 
5.350 557.0 60.949 9.239 45.334 -0.22541 0.94845 
5.375 569.0 68.718 9.026 46.992 -0.22660 0.95078 
5.400 569.0 66.402 8.704 49.483 -0.22743 0.95420 
5.425 569.0 63.647 9.446 44.911 -0.22859 0.94613 
5.450 569.0 61.522 9.545 44.427 -0.22895 0.94500 
5.475 569.0 59.066 8.830 49.036 -0.22907 0.95288 
5.500 583.0 68.026 9.063 48.070 -0.23145 0.95037 
5.525 583.0 65.876 8.424 52.754 -0.23073 0.95707 
5.550 583.0 62.568 8.905 49.324 -0.23197 0.95208 
5.575 583.0 59.400 8.744 50.796 -0.23286 0.95378 
5.600 598.0 68.505 9.303 47.652 -0.23580 0.94774 
5.625 598.0 64.873 8.567 52.990 -0.23525 0.95562 
5.650 598.0 61.400 9.063 49.202 -0.23551 0.95038 
5.675 598.0 58.220 9.780 45.161 -0.23740 0.94229 
5.700 617.0 69.414 9.110 49.685 -0.23840 0.94987 
5.725 617.0 65.677 9.459 47.518 -0.23911 0.94598 
5.750 617.0 61.371 9.298 48.624 -0.23929 0.94779 
5.775 633.0 68.955 9.136 50.515 -0.24199 0.94958 
5.800 633.0 64.562 9.258 50.556 -0.24523 0.94824 
5.825 633.0 59.418 8.910 51.638 -0.23996 0.95202 
5.850 652.0 68.863 9.283 50.226 -0.24472 0.94796 
5.875 652.0 64.000 9.759 47.411 -0.24599 0.94253 
5.900 652.0 58.823 9.172 50.775 -0.24381 0.94918 
5.925 673.0 68.612 9.644 48.448 -0.24720 0.94387 
5.950 673.0 62.730 9.672 48.765 -0.24910 0.94355 
5.975 689.0 68.009 9.644 49.097 -0.24966 0.94387 
6.000 689.0 62.409 9.684 48.783 -0.24945 0.94341 
6.025 704.0 66.838 9.867 48.424 -0.25260 0.94127 
6.050 704.0 61.740 8.907 55.588 -0.25239 0.95205 
6.075 704.0 56.450 9.503 50.187 -0.25016 0.94548 
6.100 733.0 70.036 9.542 50.471 -0.25217 0.94505 
6.125 733.0 63.743 9.325 50.696 -0.24745 0.94749 
6.150 733.0 58.677 9.919 48.127 -0.25269 0.94066 
6.175 759.0 69.797 9.903 48.547 -0.25396 0.94085 
6.200 759.0 64.614 10.459 45.878 -0.25629 0.93409 
6.225 776.0 69.863 9.616 50.386 -0.25376 0.94419 
6.250 776.0 64.243 10.094 47.574 -0.25475 0.93856 
6.275 780.0 61.821 9.846 49.162 -0.25494 0.94152 
6.300 780.0 57.233 10.880 42.541 -0.25065 0.92874 
6.325 780.0 51.618 9.888 48.357 -0.25285 0.94102 
6.350 780.0 46.916 10.398 47.594 -0.26215 0.93485 
6.375 780.0 42.270 10.034 48.138 -0.25556 0.93928 
6.400 780.0 37.845 10.388 46.695 -0.25814 0.93497 
6.425 780.0 33.742 11.563 41.125 -0.25830 0.91965 
6.450 780.0 29.396 11.273 43.707 -0.26493 0.92357 
6.475 780.0 25.891 10.447 45.691 -0.25519 0.93425 
6.500 780.0 22.182 11.845 40.444 -0.26064 0.91573 

# MINIMA:
0.600 363.0 22.182 1.269 0.558 -0.83782 0.00139 

# MAXIMA:
6.500 3905.3 112.278 44.960 357.797 0.86314 0.99902 

# PEAKS:

# END SPECTRUM


# SPECTRUM:
3

# START TIME:
17:35:06

# END TIME:
17:45:34

# THETA ANGLE:
0.00 ø

# INCIDENCE ANGLE:
65.00 ø

# ACCUMULATION NUMBER:
1

# ELLIPSOMETRIC CONFIGURATION:
+45.00 øModulator
-45.00 øAnalyser

# INTEGRATION TIME:
500 ms

# FIRST POINT:
0.6000 eV

# LAST POINT:
6.5000 eV

# INCREMENT:
0.0250 eV

# NUMBER OF POINTS:
237

# DATA:
eV Hv S0 Psi Delta Is Ic 
0.600 1797.1 65.440 22.447 317.363 0.47807 0.70842 
0.625 1600.2 81.521 22.761 315.902 0.49653 0.70063 
0.650 1403.4 69.359 21.541 311.206 0.51389 0.73038 
0.675 1403.4 67.715 21.174 311.942 0.50106 0.73907 
0.700 1301.8 77.331 20.906 310.491 0.50702 0.74534 
0.725 1200.2 74.070 20.881 313.992 0.47916 0.74593 
0.750 1200.2 78.050 19.714 315.982 0.44133 0.77242 
0.775 1098.6 76.625 20.109 322.837 0.39005 0.76359 
0.800 698.5 60.480 20.456 329.712 0.33029 0.75572 
0.825 997.0 75.478 18.675 334.001 0.26594 0.79494 
0.850 997.0 71.180 18.521 341.376 0.19238 0.79820 
0.875 698.5 63.691 18.120 349.115 0.11163 0.80655 
0.900 889.0 81.290 18.810 357.691 0.02459 0.79207 
0.925 889.0 61.896 18.222 5.713 -0.05914 0.80443 
0.950 990.6 70.007 18.558 13.671 -0.14262 0.79741 
0.975 704.9 61.527 19.757 20.370 -0.22147 0.77147 
1.000 1003.3 70.264 19.626 27.933 -0.29639 0.77438 
1.025 1003.3 73.913 19.622 35.306 -0.36562 0.77447 
1.050 641.4 60.974 19.787 42.190 -0.42785 0.77081 
1.075 1041.4 74.571 20.558 46.913 -0.48025 0.75338 
1.100 1041.4 78.920 21.274 51.393 -0.52842 0.73671 
1.125 1041.4 72.838 21.897 55.943 -0.57336 0.72184 
1.150 939.8 64.510 22.806 60.195 -0.62010 0.69950 
1.175 1041.4 75.194 24.185 64.717 -0.67586 0.66431 
1.200 1238.3 70.688 26.131 68.818 -0.73738 0.61205 
1.225 1041.4 80.386 28.803 66.487 -0.77427 0.53575 
1.250 743.0 78.967 31.688 59.846 -0.77299 0.44814 
1.275 1244.6 64.230 35.112 50.694 -0.72814 0.33833 
1.300 1346.2 65.653 39.180 38.395 -0.60830 0.20176 
1.325 1644.7 64.622 42.832 23.660 -0.40015 0.07562 
1.350 1244.6 68.895 45.111 2.882 -0.05027 -0.00387 
1.375 1644.7 63.362 44.547 344.198 0.27229 0.01582 
1.400 1447.8 70.880 41.121 324.067 0.58147 0.13497 
1.425 3949.7 47.319 37.644 312.282 0.71559 0.25397 
1.450 3949.7 24.994 33.315 300.378 0.79193 0.39667 
1.475 780.0 114.839 29.064 294.385 0.77347 0.52804 
1.500 537.0 64.240 26.710 283.078 0.78220 0.59594 
1.525 630.0 70.969 24.529 281.488 0.74025 0.65529 
1.550 561.0 65.702 22.325 278.164 0.69565 0.71142 
1.575 596.0 66.812 20.812 287.163 0.63466 0.74752 
1.600 596.0 75.842 19.216 294.053 0.56761 0.78335 
1.625 525.0 67.354 18.046 302.462 0.49704 0.80807 
1.650 544.0 69.277 16.889 312.353 0.41087 0.83120 
1.675 528.0 69.405 16.309 323.328 0.32192 0.84229 
1.700 516.0 69.543 15.494 334.072 0.22512 0.85728 
1.725 516.0 78.301 15.343 345.669 0.12632 0.85998 
1.750 498.0 71.093 14.920 357.327 0.02320 0.86742 
1.775 498.0 79.412 15.050 8.721 -0.07604 0.86516 
1.800 476.0 73.344 14.876 20.722 -0.17559 0.86818 
1.825 476.0 78.143 15.240 31.865 -0.26778 0.86181 
1.850 464.0 70.118 15.685 42.787 -0.35361 0.85382 
1.875 464.0 74.403 16.214 53.121 -0.42893 0.84407 
1.900 464.0 80.977 16.925 62.919 -0.49596 0.83049 
1.925 452.0 70.345 17.731 71.520 -0.55024 0.81451 
1.950 452.0 71.476 18.429 82.365 -0.59452 0.80012 
1.975 452.0 75.571 19.491 85.098 -0.62677 0.77735 
2.000 452.0 73.695 20.445 82.032 -0.64828 0.75597 
2.025 452.0 70.947 21.730 71.927 -0.65391 0.72585 
2.050 452.0 61.457 23.032 62.588 -0.63927 0.69384 
2.075 452.0 65.358 24.536 52.239 -0.59730 0.65511 
2.100 452.0 60.578 25.952 41.133 -0.51769 0.61697 
2.125 464.0 69.029 27.122 28.998 -0.39340 0.58434 
2.150 464.0 65.564 27.727 15.281 -0.21708 0.56706 
2.175 464.0 64.444 27.398 0.715 -0.01019 0.57650 
2.200 464.0 68.364 26.247 346.448 0.18589 0.60884 
2.225 464.0 76.563 24.342 332.813 0.34316 0.66022 
2.250 453.0 72.784 22.053 320.581 0.44195 0.71805 
2.275 443.0 69.438 19.826 309.634 0.49143 0.76994 
2.300 443.0 79.210 17.524 298.666 0.50388 0.81867 
2.325 430.0 70.825 15.411 287.855 0.48770 0.85876 
2.350 430.0 79.115 13.469 270.000 0.45316 0.89150 
2.375 419.0 70.750 12.025 270.000 0.40765 0.91319 
2.400 419.0 76.886 10.561 282.237 0.35215 0.93282 
2.425 407.0 68.001 9.296 294.813 0.28940 0.94781 
2.450 407.0 78.779 8.302 308.021 0.22511 0.95830 
2.475 398.0 72.380 7.544 322.194 0.15956 0.96553 
2.500 375.0 71.215 6.732 337.365 0.08961 0.97252 
2.525 375.0 76.598 6.692 354.077 0.02389 0.97284 
2.550 375.0 73.552 6.453 10.329 -0.04005 0.97474 
2.575 366.0 68.664 6.925 24.031 -0.09748 0.97093 
2.600 366.0 62.276 7.252 37.527 -0.15255 0.96813 
2.625 366.0 74.536 7.748 49.193 -0.20222 0.96365 
2.650 359.0 70.138 8.310 58.563 -0.24403 0.95823 
2.675 367.0 70.034 8.596 70.132 -0.27799 0.95532 
2.700 367.0 63.063 9.266 72.893 -0.30376 0.94815 
2.725 376.0 69.357 9.705 78.291 -0.32540 0.94317 
2.750 376.0 70.770 10.097 76.424 -0.33554 0.93853 
2.775 376.0 60.570 10.331 72.661 -0.33683 0.93567 
2.800 385.0 67.316 10.693 64.927 -0.33028 0.93115 
2.825 385.0 64.899 10.869 58.250 -0.31493 0.92889 
2.850 385.0 60.583 11.022 50.610 -0.29006 0.92690 
2.875 394.0 67.959 10.775 44.825 -0.25893 0.93010 
2.900 394.0 65.849 10.715 37.567 -0.22277 0.93086 
2.925 394.0 63.559 10.400 31.136 -0.18362 0.93483 
2.950 394.0 63.457 9.843 24.472 -0.13954 0.94155 
2.975 394.0 61.590 9.462 17.596 -0.09804 0.94595 
3.000 394.0 60.127 8.765 11.448 -0.05978 0.95355 
3.025 403.0 69.759 7.767 5.980 -0.02790 0.96347 
3.050 403.0 68.570 7.194 0.976 -0.00423 0.96864 
3.075 403.0 67.645 6.510 356.639 0.01321 0.97429 
3.100 391.0 71.888 5.533 352.683 0.02444 0.98141 
3.125 391.0 71.913 4.569 349.645 0.02855 0.98731 
3.150 391.0 71.190 3.504 347.435 0.02654 0.99253 
3.175 391.0 69.675 2.707 348.364 0.01903 0.99554 
3.200 391.0 67.851 2.729 356.115 0.00644 0.99547 
3.225 391.0 66.918 2.539 4.959 -0.00765 0.99608 
3.250 391.0 65.895 1.735 25.055 -0.02563 0.99817 
3.275 391.0 63.717 0.811 90.000 -0.04629 0.99960 
3.300 399.0 71.277 2.965 40.747 -0.06744 0.99465 
3.325 399.0 65.193 3.059 57.692 -0.09007 0.99431 
3.350 399.0 61.568 2.287 90.000 -0.11257 0.99682 
3.375 399.0 62.297 3.125 90.000 -0.13159 0.99405 
3.400 399.0 62.610 4.383 75.724 -0.14771 0.98832 
3.425 399.0 61.429 4.481 90.000 -0.16140 0.98779 
3.450 399.0 59.749 4.944 90.000 -0.17220 0.98515 
3.475 409.0 68.510 5.560 69.296 -0.18042 0.98122 
3.500 409.0 66.511 5.952 63.781 -0.18506 0.97849 
3.525 409.0 63.246 5.794 70.410 -0.18925 0.97962 
3.550 409.0 59.740 6.073 64.977 -0.19067 0.97761 
3.575 419.0 70.011 6.196 62.621 -0.19056 0.97670 
3.600 419.0 66.183 6.455 58.127 -0.18974 0.97472 
3.625 419.0 64.615 6.212 60.603 -0.18744 0.97658 
3.650 419.0 63.065 6.621 53.957 -0.18522 0.97341 
3.675 419.0 61.495 6.621 52.314 -0.18127 0.97341 
3.700 428.0 69.976 6.439 52.780 -0.17747 0.97485 
3.725 428.0 69.053 6.760 47.983 -0.17370 0.97229 
3.750 428.0 65.908 6.501 49.076 -0.17000 0.97436 
3.775 428.0 64.988 6.689 46.018 -0.16649 0.97286 
3.800 428.0 62.252 6.515 46.338 -0.16310 0.97425 
3.825 440.0 71.408 6.548 45.231 -0.16086 0.97399 
3.850 440.0 67.595 6.622 43.824 -0.15863 0.97341 
3.875 440.0 61.709 6.440 44.786 -0.15703 0.97484 
3.900 452.0 68.380 6.443 44.261 -0.15565 0.97481 
3.925 452.0 62.549 6.409 44.519 -0.15554 0.97508 
3.950 464.0 70.474 6.697 42.611 -0.15683 0.97280 
3.975 464.0 64.667 6.496 44.086 -0.15642 0.97440 
4.000 464.0 60.548 6.296 46.418 -0.15792 0.97595 
4.025 477.0 68.850 6.409 46.198 -0.16012 0.97508 
4.050 477.0 64.015 6.434 46.422 -0.16133 0.97489 
4.075 487.0 70.007 6.508 46.482 -0.16331 0.97431 
4.100 487.0 63.963 6.579 46.991 -0.16647 0.97374 
4.125 487.0 60.493 6.915 44.871 -0.16865 0.97101 
4.150 500.0 68.293 6.711 47.741 -0.17180 0.97269 
4.175 500.0 63.529 6.635 49.548 -0.17468 0.97330 
4.200 500.0 60.582 6.526 51.890 -0.17770 0.97416 
4.225 512.0 69.200 6.588 52.158 -0.18000 0.97368 
4.250 512.0 65.357 6.701 52.201 -0.18314 0.97277 
4.275 512.0 61.325 6.957 50.657 -0.18597 0.97066 
4.300 487.0 70.552 7.608 46.015 -0.18884 0.96494 
4.325 487.0 74.642 8.965 37.900 -0.18912 0.95143 
4.350 487.0 77.264 8.355 42.487 -0.19420 0.95777 
4.375 477.0 68.545 8.737 40.356 -0.19444 0.95385 
4.400 477.0 69.062 9.063 38.978 -0.19569 0.95037 
4.425 477.0 70.966 7.813 47.573 -0.19881 0.96304 
4.450 477.0 70.432 8.589 42.034 -0.19774 0.95540 
4.475 477.0 72.832 8.493 42.894 -0.19884 0.95638 
4.500 477.0 71.392 8.582 42.913 -0.20093 0.95547 
4.525 477.0 70.510 8.322 44.511 -0.20081 0.95810 
4.550 477.0 70.529 7.852 48.277 -0.20201 0.96267 
4.575 477.0 68.600 8.689 42.565 -0.20203 0.95436 
4.600 477.0 67.605 8.998 40.968 -0.20256 0.95108 
4.625 477.0 65.504 8.375 44.713 -0.20277 0.95757 
4.650 477.0 63.926 8.804 42.249 -0.20339 0.95315 
4.675 477.0 62.047 9.058 41.133 -0.20455 0.95043 
4.700 477.0 61.083 8.467 44.675 -0.20478 0.95664 
4.725 488.0 69.303 9.045 41.289 -0.20490 0.95057 
4.750 488.0 67.350 8.710 43.330 -0.20543 0.95414 
4.775 488.0 64.176 8.203 47.042 -0.20670 0.95929 
4.800 488.0 61.602 9.319 40.106 -0.20587 0.94756 
4.825 488.0 59.849 9.141 41.290 -0.20701 0.94952 
4.850 501.0 69.287 9.036 42.114 -0.20802 0.95067 
4.875 501.0 66.514 8.539 45.578 -0.20974 0.95591 
4.900 501.0 64.527 8.467 46.130 -0.20999 0.95664 
4.925 501.0 63.211 8.728 44.189 -0.20909 0.95395 
4.950 501.0 60.642 9.115 42.559 -0.21159 0.94980 
4.975 512.0 69.158 8.992 43.403 -0.21214 0.95115 
5.000 512.0 67.509 9.112 43.036 -0.21342 0.94984 
5.025 512.0 64.140 9.006 43.823 -0.21410 0.95100 
5.050 523.0 73.447 9.190 42.855 -0.21446 0.94899 
5.075 523.0 69.624 9.029 44.117 -0.21579 0.95074 
5.100 523.0 67.390 8.640 46.941 -0.21702 0.95487 
5.125 523.0 64.225 8.926 45.545 -0.21881 0.95186 
5.150 523.0 62.734 9.301 43.154 -0.21818 0.94776 
5.175 535.0 71.021 8.985 45.521 -0.22013 0.95122 
5.200 535.0 66.635 9.777 41.433 -0.22149 0.94232 
5.225 535.0 64.459 9.162 45.298 -0.22346 0.94929 
5.250 535.0 60.972 8.995 46.526 -0.22414 0.95111 
5.275 547.0 70.710 8.973 47.048 -0.22551 0.95135 
5.300 547.0 67.758 9.583 43.684 -0.22676 0.94457 
5.325 547.0 64.405 9.425 44.858 -0.22790 0.94636 
5.350 547.0 62.651 9.129 46.250 -0.22631 0.94966 
5.375 560.0 71.589 8.996 48.099 -0.22991 0.95110 
5.400 560.0 68.509 9.591 44.246 -0.22925 0.94448 
5.425 560.0 66.765 9.300 46.033 -0.22956 0.94777 
5.450 560.0 64.329 9.120 47.645 -0.23129 0.94976 
5.475 560.0 60.257 9.338 47.142 -0.23473 0.94734 
5.500 560.0 59.439 9.591 45.146 -0.23292 0.94448 
5.525 577.0 71.575 9.516 46.016 -0.23464 0.94533 
5.550 577.0 68.207 9.445 46.659 -0.23545 0.94615 
5.575 577.0 64.551 10.013 43.729 -0.23671 0.93954 
5.600 577.0 62.411 9.777 45.434 -0.23845 0.94233 
5.625 590.0 69.681 9.822 45.220 -0.23863 0.94180 
5.650 590.0 65.001 9.882 44.695 -0.23782 0.94110 
5.675 590.0 61.895 9.959 44.429 -0.23849 0.94018 
5.700 603.0 68.853 9.858 45.683 -0.24137 0.94138 
5.725 603.0 64.405 9.420 48.409 -0.24152 0.94642 
5.750 603.0 61.455 9.951 45.627 -0.24333 0.94027 
5.775 617.0 67.122 9.547 48.248 -0.24405 0.94498 
5.800 617.0 63.369 10.052 45.755 -0.24624 0.93907 
5.825 617.0 58.748 10.185 44.559 -0.24424 0.93746 
5.850 634.0 66.971 10.098 45.522 -0.24634 0.93851 
5.875 634.0 61.987 9.873 47.487 -0.24903 0.94120 
5.900 648.0 66.534 9.784 48.616 -0.25130 0.94224 
5.925 648.0 61.184 9.974 47.219 -0.25040 0.94000 
5.950 667.0 69.947 9.547 49.803 -0.24986 0.94498 
5.975 667.0 62.786 9.808 49.313 -0.25457 0.94196 
6.000 681.0 68.183 10.022 47.069 -0.25094 0.93943 
6.025 681.0 61.616 9.422 52.197 -0.25521 0.94640 
6.050 698.0 67.751 9.808 49.634 -0.25579 0.94196 
6.075 698.0 61.851 10.344 45.646 -0.25260 0.93552 
6.100 714.0 67.740 10.212 47.081 -0.25554 0.93714 
6.125 714.0 60.916 10.111 48.002 -0.25689 0.93836 
6.150 732.0 67.875 10.333 46.788 -0.25723 0.93565 
6.175 732.0 62.588 9.970 48.851 -0.25679 0.94005 
6.200 746.0 65.234 10.146 47.533 -0.25582 0.93794 
6.225 746.0 60.532 10.417 47.236 -0.26111 0.93461 
6.250 765.0 68.966 10.198 46.963 -0.25472 0.93731 
6.275 765.0 62.877 10.674 45.547 -0.25987 0.93138 
6.300 780.0 66.372 11.218 43.635 -0.26336 0.92431 
6.325 780.0 60.962 10.632 46.094 -0.26128 0.93192 
6.350 780.0 54.474 9.986 49.605 -0.26014 0.93985 
6.375 780.0 49.845 10.823 44.344 -0.25782 0.92949 
6.400 780.0 44.576 10.504 47.218 -0.26311 0.93354 
6.425 780.0 38.992 10.816 45.388 -0.26244 0.92956 
6.450 780.0 34.477 10.886 44.227 -0.25872 0.92866 
6.475 780.0 30.323 11.575 41.306 -0.25950 0.91948 
6.500 780.0 25.909 12.025 40.242 -0.26327 0.91319 

# MINIMA:
0.600 359.0 24.994 0.811 0.715 -0.77427 -0.00387 

# MAXIMA:
6.500 3949.7 114.839 45.111 357.691 0.79193 0.99960 

# PEAKS:

# END SPECTRUM


# SPECTRUM:
4

# START TIME:
17:46:19

# END TIME:
17:56:46

# THETA ANGLE:
0.00 ø

# INCIDENCE ANGLE:
70.00 ø

# ACCUMULATION NUMBER:
1

# ELLIPSOMETRIC CONFIGURATION:
+45.00 øModulator
-45.00 øAnalyser

# INTEGRATION TIME:
500 ms

# FIRST POINT:
0.6000 eV

# LAST POINT:
6.5000 eV

# INCREMENT:
0.0250 eV

# NUMBER OF POINTS:
237

# DATA:
eV Hv S0 Psi Delta Is Ic 
0.600 1797.1 66.853 22.190 319.886 0.45064 0.71471 
0.625 1498.6 73.493 23.258 318.175 0.48386 0.68814 
0.650 1498.6 81.320 21.575 310.794 0.51776 0.72957 
0.675 1498.6 81.490 20.731 309.461 0.51119 0.74940 
0.700 1301.8 81.543 19.164 302.148 0.52507 0.78448 
0.725 1200.2 78.182 18.109 299.569 0.51391 0.80677 
0.750 1098.6 66.448 17.061 299.896 0.48631 0.82785 
0.775 997.0 65.124 15.733 301.583 0.44467 0.85295 
0.800 698.5 66.065 13.907 302.383 0.39403 0.88447 
0.825 997.0 78.367 11.954 306.353 0.32641 0.91419 
0.850 997.0 72.540 12.268 323.178 0.24889 0.90970 
0.875 698.5 66.322 10.270 331.898 0.16528 0.93642 
0.900 800.1 65.570 10.789 348.549 0.07301 0.92992 
0.925 901.7 65.920 10.951 3.456 -0.02248 0.92782 
0.950 1003.3 74.091 9.935 20.097 -0.11679 0.94047 
0.975 704.9 62.678 12.078 30.475 -0.20755 0.91243 
1.000 1003.3 71.627 12.791 41.894 -0.28834 0.90197 
1.025 1003.3 75.518 13.715 52.079 -0.36339 0.88758 
1.050 628.7 58.959 15.303 57.049 -0.42722 0.86070 
1.075 1028.7 73.492 16.534 61.890 -0.48129 0.83801 
1.100 1028.7 77.708 18.218 62.471 -0.52668 0.80452 
1.125 1028.7 73.497 20.034 62.003 -0.56837 0.76527 
1.150 927.1 64.416 21.767 62.159 -0.60905 0.72498 
1.175 927.1 61.623 23.993 61.063 -0.65022 0.66931 
1.200 1124.0 63.583 26.997 57.953 -0.68567 0.58788 
1.225 927.1 76.111 29.691 54.312 -0.69897 0.50931 
1.250 628.7 68.844 32.617 48.488 -0.67994 0.41892 
1.275 1130.3 73.755 35.423 42.392 -0.63688 0.32810 
1.300 1130.3 65.479 38.851 34.143 -0.54838 0.21301 
1.325 1428.8 70.209 41.866 24.347 -0.40980 0.10917 
1.350 1028.7 70.620 44.399 10.543 -0.18293 0.02097 
1.375 1428.8 60.894 45.011 356.813 0.05559 -0.00037 
1.400 1327.2 78.496 43.654 341.031 0.32469 0.04696 
1.425 3924.3 59.029 41.132 330.252 0.49168 0.13463 
1.450 3924.3 29.345 37.497 319.880 0.62241 0.25893 
1.475 780.0 126.296 32.638 311.707 0.67813 0.41825 
1.500 535.0 65.936 30.460 304.638 0.71905 0.48603 
1.525 629.0 73.039 27.167 298.553 0.71362 0.58305 
1.550 564.0 73.212 24.733 292.470 0.70231 0.64991 
1.575 592.0 66.845 22.127 286.552 0.66892 0.71625 
1.600 592.0 76.702 19.698 279.815 0.62538 0.77278 
1.625 527.0 71.844 17.697 278.494 0.57284 0.81519 
1.650 541.0 68.261 15.318 281.320 0.49968 0.86042 
1.675 529.0 71.094 13.208 290.554 0.41658 0.89558 
1.700 514.0 67.774 11.109 301.606 0.32204 0.92576 
1.725 514.0 77.484 9.289 316.868 0.21781 0.94789 
1.750 497.0 70.160 8.209 337.595 0.10773 0.95923 
1.775 488.0 69.351 6.908 0.826 -0.00344 0.97107 
1.800 472.0 71.495 7.708 26.260 -0.11761 0.96402 
1.825 472.0 76.475 8.831 47.361 -0.22318 0.95287 
1.850 463.0 73.877 10.706 60.714 -0.31842 0.93098 
1.875 463.0 75.753 12.158 76.242 -0.39996 0.91129 
1.900 452.0 71.071 14.179 81.353 -0.46957 0.88001 
1.925 452.0 78.334 15.882 83.750 -0.52329 0.85022 
1.950 443.0 70.036 17.698 76.174 -0.56245 0.81516 
1.975 443.0 75.885 19.569 68.727 -0.58818 0.77563 
2.000 443.0 76.966 21.250 62.716 -0.60043 0.73727 
2.025 443.0 73.419 23.139 55.930 -0.59866 0.69115 
2.050 443.0 69.745 24.869 49.634 -0.58142 0.64628 
2.075 443.0 75.103 26.623 42.798 -0.54435 0.59839 
2.100 443.0 71.949 28.400 35.367 -0.48433 0.54755 
2.125 443.0 72.850 29.858 27.553 -0.39944 0.50428 
2.150 443.0 71.291 30.975 18.601 -0.28150 0.47025 
2.175 443.0 66.343 31.415 8.851 -0.13688 0.45664 
2.200 443.0 68.843 31.112 358.962 0.01603 0.46602 
2.225 443.0 73.429 29.911 349.218 0.16173 0.50267 
2.250 434.0 67.146 28.058 340.329 0.27944 0.55752 
2.275 434.0 72.926 26.020 332.687 0.36179 0.61510 
2.300 434.0 81.227 23.540 325.825 0.41135 0.68098 
2.325 420.0 69.249 20.975 319.688 0.43247 0.74372 
2.350 420.0 75.758 18.531 314.425 0.43041 0.79799 
2.375 413.0 71.290 16.218 310.106 0.41024 0.84399 
2.400 413.0 77.227 13.825 305.996 0.37546 0.88580 
2.425 404.0 69.814 11.441 302.453 0.32811 0.92131 
2.450 396.0 70.764 9.342 300.871 0.27495 0.94730 
2.475 389.0 66.517 7.279 300.609 0.21634 0.96789 
2.500 371.0 70.663 4.899 298.985 0.14886 0.98541 
2.525 363.0 66.051 3.253 312.650 0.08334 0.99356 
2.550 363.0 62.992 3.233 350.462 0.01866 0.99364 
2.575 363.0 68.757 2.994 23.750 -0.04201 0.99455 
2.600 363.0 65.302 3.559 54.951 -0.10144 0.99229 
2.625 363.0 77.746 6.079 47.273 -0.15470 0.97757 
2.650 352.0 67.908 7.481 50.431 -0.19903 0.96609 
2.675 360.0 69.165 8.486 53.877 -0.23578 0.95645 
2.700 360.0 63.222 10.203 49.431 -0.26485 0.93725 
2.725 369.0 68.593 11.523 47.579 -0.28898 0.92019 
2.750 369.0 73.585 12.597 45.417 -0.30318 0.90488 
2.775 369.0 61.441 13.592 42.316 -0.30756 0.88954 
2.800 377.0 69.931 14.424 39.347 -0.30590 0.87590 
2.825 377.0 67.943 15.265 35.747 -0.29676 0.86137 
2.850 377.0 62.178 15.871 32.093 -0.27952 0.85042 
2.875 377.0 60.768 16.360 28.248 -0.25583 0.84132 
2.900 388.0 71.485 16.775 24.461 -0.22884 0.83340 
2.925 388.0 69.028 16.928 20.834 -0.19814 0.83044 
2.950 388.0 70.566 16.931 17.083 -0.16368 0.83038 
2.975 388.0 65.617 16.788 13.470 -0.12883 0.83315 
3.000 388.0 63.785 16.488 9.957 -0.09411 0.83891 
3.025 388.0 64.597 16.043 6.921 -0.06401 0.84725 
3.050 388.0 63.138 15.520 4.229 -0.03803 0.85680 
3.075 388.0 60.807 15.113 2.019 -0.01774 0.86404 
3.100 381.0 69.864 14.204 0.243 -0.00202 0.87958 
3.125 381.0 69.552 13.440 359.010 0.00781 0.89196 
3.150 381.0 67.372 12.720 358.326 0.01255 0.90304 
3.175 381.0 67.218 11.921 358.361 0.01156 0.91467 
3.200 381.0 63.246 11.369 359.130 0.00587 0.92228 
3.225 381.0 62.670 10.719 0.476 -0.00304 0.93081 
3.250 381.0 61.168 10.282 2.532 -0.01551 0.93629 
3.275 389.0 69.325 9.768 5.520 -0.03217 0.94244 
3.300 389.0 65.567 9.700 8.540 -0.04933 0.94322 
3.325 389.0 60.708 9.569 12.167 -0.06910 0.94473 
3.350 399.0 70.360 9.470 15.995 -0.08943 0.94586 
3.375 399.0 68.789 9.575 19.334 -0.10860 0.94467 
3.400 399.0 71.707 9.904 21.474 -0.12405 0.94083 
3.425 399.0 71.094 10.360 23.057 -0.13857 0.93532 
3.450 399.0 70.011 10.536 24.635 -0.14987 0.93313 
3.475 399.0 66.227 10.834 25.590 -0.15948 0.92934 
3.500 399.0 65.570 11.221 25.726 -0.16571 0.92426 
3.525 399.0 61.502 11.484 25.979 -0.17093 0.92072 
3.550 409.0 69.243 11.850 25.640 -0.17393 0.91566 
3.575 409.0 69.688 12.032 25.602 -0.17620 0.91309 
3.600 409.0 65.268 12.332 25.078 -0.17688 0.90876 
3.625 409.0 64.416 12.484 24.722 -0.17654 0.90654 
3.650 409.0 63.085 12.611 24.204 -0.17471 0.90466 
3.675 409.0 62.414 12.726 23.684 -0.17262 0.90295 
3.700 409.0 59.250 12.854 23.104 -0.17022 0.90102 
3.725 418.0 67.723 12.991 22.472 -0.16745 0.89894 
3.750 418.0 66.286 12.928 22.150 -0.16443 0.89990 
3.775 418.0 64.622 13.057 21.502 -0.16133 0.89792 
3.800 418.0 61.398 13.036 21.105 -0.15825 0.89825 
3.825 429.0 71.604 13.064 20.706 -0.15571 0.89781 
3.850 429.0 66.124 13.118 20.393 -0.15404 0.89698 
3.875 429.0 60.563 12.992 20.345 -0.15232 0.89892 
3.900 442.0 68.360 13.086 20.019 -0.15099 0.89747 
3.925 442.0 63.369 13.004 20.054 -0.15037 0.89873 
3.950 454.0 69.409 13.007 20.033 -0.15025 0.89869 
3.975 454.0 65.124 12.993 20.038 -0.15012 0.89891 
4.000 454.0 60.427 12.858 20.286 -0.15045 0.90095 
4.025 466.0 67.024 13.008 20.239 -0.15173 0.89867 
4.050 466.0 64.725 12.863 20.686 -0.15334 0.90087 
4.075 466.0 60.686 12.937 20.709 -0.15431 0.89976 
4.100 481.0 71.287 12.908 21.123 -0.15694 0.90020 
4.125 481.0 66.681 12.898 21.304 -0.15810 0.90036 
4.150 481.0 61.586 12.877 21.811 -0.16144 0.90067 
4.175 493.0 68.952 12.830 22.117 -0.16304 0.90138 
4.200 493.0 63.140 12.801 22.521 -0.16550 0.90182 
4.225 493.0 62.312 12.872 22.796 -0.16829 0.90074 
4.250 493.0 60.650 12.843 23.152 -0.17041 0.90119 
4.275 507.0 70.458 13.002 23.258 -0.17312 0.89877 
4.300 480.0 73.840 13.238 23.217 -0.17574 0.89513 
4.325 480.0 79.141 13.850 22.555 -0.17830 0.88539 
4.350 471.0 69.349 13.959 22.496 -0.17915 0.88362 
4.375 471.0 71.073 14.361 22.264 -0.18208 0.87696 
4.400 471.0 71.816 13.975 22.918 -0.18251 0.88336 
4.425 471.0 75.113 14.153 22.769 -0.18352 0.88043 
4.450 471.0 75.258 14.079 23.110 -0.18522 0.88165 
4.475 471.0 74.139 13.967 23.389 -0.18596 0.88349 
4.500 471.0 75.201 14.377 22.780 -0.18626 0.87669 
4.525 471.0 75.822 14.143 23.412 -0.18830 0.88059 
4.550 471.0 73.955 14.222 23.361 -0.18887 0.87928 
4.575 471.0 72.369 14.337 23.142 -0.18858 0.87736 
4.600 471.0 72.660 14.156 23.707 -0.19068 0.88038 
4.625 471.0 68.370 14.163 23.705 -0.19075 0.88027 
4.650 471.0 69.866 13.976 24.027 -0.19085 0.88335 
4.675 471.0 65.884 14.260 23.732 -0.19216 0.87865 
4.700 471.0 65.782 14.268 23.798 -0.19277 0.87851 
4.725 471.0 62.792 13.735 24.649 -0.19238 0.88726 
4.750 471.0 60.050 14.225 23.986 -0.19367 0.87923 
4.775 481.0 68.092 14.635 23.248 -0.19299 0.87232 
4.800 481.0 64.193 14.342 23.730 -0.19315 0.87729 
4.825 481.0 62.230 14.271 23.975 -0.19415 0.87847 
4.850 481.0 60.130 14.307 23.921 -0.19419 0.87787 
4.875 494.0 70.944 14.398 24.103 -0.19671 0.87635 
4.900 494.0 69.503 14.566 23.956 -0.19767 0.87350 
4.925 494.0 66.235 14.419 24.150 -0.19734 0.87599 
4.950 494.0 63.371 14.120 24.677 -0.19755 0.88098 
4.975 494.0 61.994 14.375 24.413 -0.19880 0.87672 
5.000 494.0 61.586 14.024 25.056 -0.19913 0.88256 
5.025 505.0 67.737 14.414 24.597 -0.20069 0.87608 
5.050 505.0 66.311 14.479 24.403 -0.20004 0.87498 
5.075 505.0 62.900 14.374 25.015 -0.20338 0.87674 
5.100 505.0 60.806 14.238 25.306 -0.20380 0.87902 
5.125 505.0 57.876 14.281 25.359 -0.20477 0.87830 
5.150 521.0 73.428 14.508 25.096 -0.20573 0.87449 
5.175 521.0 66.796 14.729 24.700 -0.20550 0.87072 
5.200 521.0 66.598 14.477 25.297 -0.20686 0.87501 
5.225 521.0 62.905 14.494 25.443 -0.20820 0.87472 
5.250 521.0 61.121 14.912 24.688 -0.20773 0.86755 
5.275 521.0 58.302 14.584 25.437 -0.20934 0.87319 
5.300 536.0 69.715 14.694 25.344 -0.21005 0.87132 
5.325 536.0 66.667 14.692 25.661 -0.21247 0.87136 
5.350 536.0 64.413 14.421 26.148 -0.21259 0.87595 
5.375 536.0 59.975 14.781 25.678 -0.21378 0.86982 
5.400 547.0 67.844 14.494 26.346 -0.21507 0.87472 
5.425 547.0 67.275 14.570 26.240 -0.21530 0.87343 
5.450 547.0 63.906 14.625 26.423 -0.21743 0.87250 
5.475 561.0 72.903 14.719 26.210 -0.21707 0.87089 
5.500 561.0 70.800 14.682 26.420 -0.21819 0.87151 
5.525 561.0 67.429 14.730 26.481 -0.21930 0.87071 
5.550 561.0 64.324 14.689 26.415 -0.21823 0.87141 
5.575 561.0 64.552 14.716 26.674 -0.22059 0.87094 
5.600 561.0 60.273 14.504 27.218 -0.22181 0.87454 
5.625 574.0 68.351 14.599 27.127 -0.22243 0.87294 
5.650 574.0 63.862 14.851 26.638 -0.22215 0.86862 
5.675 574.0 60.527 14.996 26.723 -0.22479 0.86609 
5.700 586.0 65.953 15.037 26.954 -0.22714 0.86538 
5.725 586.0 61.159 14.919 27.188 -0.22734 0.86743 
5.750 599.0 68.102 14.977 27.137 -0.22774 0.86643 
5.775 599.0 64.973 14.884 27.642 -0.23035 0.86804 
5.800 613.0 71.232 15.018 27.321 -0.22974 0.86571 
5.825 613.0 67.519 14.740 27.867 -0.23003 0.87052 
5.850 613.0 60.815 14.755 27.841 -0.23004 0.87027 
5.875 631.0 70.958 14.806 27.889 -0.23113 0.86939 
5.900 631.0 63.064 15.136 27.645 -0.23390 0.86364 
5.925 631.0 60.296 15.063 27.557 -0.23220 0.86492 
5.950 646.0 66.539 15.032 27.926 -0.23462 0.86547 
5.975 646.0 60.457 15.110 27.825 -0.23494 0.86410 
6.000 666.0 69.287 15.032 28.114 -0.23607 0.86547 
6.025 666.0 63.014 14.978 28.350 -0.23711 0.86642 
6.050 681.0 70.053 15.185 27.787 -0.23570 0.86277 
6.075 681.0 62.879 15.396 27.323 -0.23497 0.85904 
6.100 696.0 66.473 15.254 28.486 -0.24213 0.86155 
6.125 696.0 61.410 15.367 27.679 -0.23740 0.85954 
6.150 713.0 68.612 15.551 27.692 -0.24006 0.85625 
6.175 713.0 62.278 15.280 28.054 -0.23912 0.86110 
6.200 713.0 60.258 15.624 27.799 -0.24192 0.85494 
6.225 733.0 65.728 15.253 28.100 -0.23911 0.86157 
6.250 750.0 73.922 15.642 28.012 -0.24388 0.85461 
6.275 750.0 66.616 15.633 27.549 -0.24005 0.85476 
6.300 750.0 61.420 15.658 28.159 -0.24528 0.85432 
6.325 769.0 68.145 15.719 27.940 -0.24438 0.85321 
6.350 769.0 61.664 15.381 27.891 -0.23927 0.85930 
6.375 769.0 54.881 15.694 28.410 -0.24780 0.85367 
6.400 780.0 55.162 15.395 28.467 -0.24400 0.85905 
6.425 780.0 49.166 16.361 26.986 -0.24529 0.84130 
6.450 780.0 42.730 16.186 26.986 -0.24295 0.84459 
6.475 780.0 37.416 16.229 27.069 -0.24422 0.84379 
6.500 780.0 32.648 16.422 26.256 -0.23992 0.84016 

# MINIMA:
0.600 352.0 29.345 2.994 0.243 -0.69897 -0.00037 

# MAXIMA:
6.500 3924.3 126.296 45.011 359.130 0.71905 0.99455 

# PEAKS:

# END SPECTRUM


# SPECTRUM:
5

# START TIME:
17:57:30

# END TIME:
18:08:02

# THETA ANGLE:
0.00 ø

# INCIDENCE ANGLE:
75.00 ø

# ACCUMULATION NUMBER:
1

# ELLIPSOMETRIC CONFIGURATION:
+45.00 øModulator
-45.00 øAnalyser

# INTEGRATION TIME:
500 ms

# FIRST POINT:
0.6000 eV

# LAST POINT:
6.5000 eV

# INCREMENT:
0.0250 eV

# NUMBER OF POINTS:
237

# DATA:
eV Hv S0 Psi Delta Is Ic 
0.600 1797.1 68.491 26.875 333.680 0.35757 0.59131 
0.625 1498.6 73.803 27.821 331.680 0.39163 0.56437 
0.650 1397.0 71.339 25.454 326.062 0.43331 0.63057 
0.675 1397.0 71.724 24.322 324.489 0.43599 0.66075 
0.700 1200.2 68.273 23.068 320.385 0.45972 0.69296 
0.725 1098.6 65.352 20.188 313.455 0.47025 0.76180 
0.750 1098.6 68.477 20.357 316.772 0.44675 0.75798 
0.775 997.0 67.671 18.088 313.720 0.42660 0.80721 
0.800 698.5 68.809 15.070 308.586 0.39250 0.86479 
0.825 895.4 62.670 12.065 302.751 0.34381 0.91262 
0.850 997.0 74.735 9.964 306.118 0.27534 0.94012 
0.875 698.5 70.496 8.518 318.043 0.19587 0.95612 
0.900 800.1 64.565 0.000 180.000 0.10893 1.00083 
0.925 901.7 69.086 2.086 349.737 0.01296 0.99735 
0.950 1003.3 76.183 6.042 23.112 -0.08217 0.97784 
0.975 704.9 63.835 8.680 35.564 -0.17354 0.95445 
1.000 1003.3 74.272 8.816 57.683 -0.25599 0.95302 
1.025 1003.3 74.539 11.474 57.632 -0.32930 0.92087 
1.050 616.0 60.272 14.524 52.945 -0.38750 0.87421 
1.075 1016.0 75.277 17.091 50.420 -0.43302 0.82726 
1.100 920.8 64.601 19.262 49.496 -0.47359 0.78234 
1.125 1022.4 77.194 21.881 46.946 -0.50541 0.72221 
1.150 920.8 71.218 24.060 45.738 -0.53322 0.66757 
1.175 920.8 70.377 26.677 44.518 -0.56255 0.59686 
1.200 1022.4 62.484 29.416 42.933 -0.58282 0.51754 
1.225 825.5 73.629 32.028 40.133 -0.57961 0.43749 
1.250 552.5 60.348 34.466 36.476 -0.55475 0.35948 
1.275 952.5 66.162 36.822 32.465 -0.51507 0.28159 
1.300 952.5 64.183 39.304 27.216 -0.44833 0.19753 
1.325 1251.0 74.257 41.737 20.827 -0.35325 0.11364 
1.350 850.9 72.352 43.994 11.829 -0.20486 0.03511 
1.375 1352.6 76.441 44.967 2.688 -0.04689 0.00115 
1.400 1054.1 67.919 44.709 351.394 0.14963 0.01017 
1.425 2755.9 59.421 43.115 342.552 0.29919 0.06574 
1.450 3956.1 40.101 40.724 334.694 0.42271 0.14872 
1.475 780.0 161.582 37.220 328.500 0.50334 0.26824 
1.500 514.0 64.931 34.812 322.617 0.56915 0.34817 
1.525 601.0 67.564 32.161 318.852 0.59303 0.43330 
1.550 546.0 71.074 29.403 314.584 0.60924 0.51794 
1.575 577.0 68.113 26.858 311.422 0.60445 0.59179 
1.600 577.0 73.964 24.127 307.695 0.59038 0.66583 
1.625 512.0 65.357 21.773 305.300 0.56227 0.72482 
1.650 531.0 69.155 18.685 301.582 0.51705 0.79474 
1.675 519.0 69.874 15.593 298.197 0.45637 0.85549 
1.700 508.0 69.219 12.526 296.613 0.37858 0.90593 
1.725 499.0 68.801 9.152 295.327 0.28386 0.94941 
1.750 499.0 80.725 6.376 307.330 0.17552 0.97533 
1.775 483.0 69.845 3.441 328.867 0.06195 0.99280 
1.800 465.0 66.302 3.403 27.245 -0.05425 0.99295 
1.825 465.0 71.944 6.308 48.439 -0.16344 0.97585 
1.850 456.0 68.689 9.204 56.640 -0.26376 0.94883 
1.875 456.0 74.961 12.069 58.087 -0.34712 0.91257 
1.900 447.0 71.491 14.955 56.068 -0.41371 0.86681 
1.925 439.0 68.685 17.548 53.583 -0.46267 0.81819 
1.950 439.0 73.584 19.980 50.409 -0.49493 0.76649 
1.975 431.0 70.513 22.263 46.956 -0.51249 0.71292 
2.000 431.0 74.112 24.277 43.625 -0.51716 0.66192 
2.025 431.0 74.112 26.202 39.908 -0.50834 0.61008 
2.050 431.0 69.580 27.998 36.164 -0.48919 0.55925 
2.075 431.0 80.805 29.775 31.910 -0.45568 0.50678 
2.100 423.0 68.444 31.431 27.330 -0.40857 0.45614 
2.125 423.0 69.800 32.782 22.416 -0.34717 0.41369 
2.150 423.0 66.161 33.951 16.791 -0.26766 0.37619 
2.175 423.0 69.055 34.741 10.441 -0.16972 0.35049 
2.200 423.0 69.584 34.911 3.948 -0.06462 0.34494 
2.225 423.0 72.236 34.436 357.234 0.04501 0.36044 
2.250 423.0 74.849 33.400 351.003 0.14373 0.39393 
2.275 423.0 79.026 31.930 345.561 0.22384 0.44057 
2.300 412.0 70.164 29.989 340.799 0.28476 0.50033 
2.325 412.0 74.622 27.839 336.879 0.32430 0.56385 
2.350 404.0 67.137 25.735 334.030 0.34256 0.62293 
2.375 404.0 70.531 23.674 331.991 0.34539 0.67754 
2.400 404.0 77.060 21.437 330.735 0.33261 0.73284 
2.425 396.0 69.755 19.340 330.585 0.30694 0.78065 
2.450 387.0 68.231 17.401 331.548 0.27191 0.82114 
2.475 387.0 71.254 15.615 333.836 0.22861 0.85510 
2.500 367.0 71.296 13.899 338.124 0.17376 0.88459 
2.525 367.0 76.081 12.726 344.213 0.11692 0.90295 
2.550 367.0 71.650 12.102 351.691 0.05925 0.91209 
2.575 359.0 71.555 11.945 359.460 0.00382 0.91433 
2.600 359.0 63.694 12.210 7.306 -0.05257 0.91054 
2.625 359.0 77.191 12.757 13.823 -0.10292 0.90248 
2.650 349.0 69.699 13.688 18.431 -0.14537 0.88801 
2.675 349.0 59.812 14.962 21.191 -0.18033 0.86668 
2.700 361.0 71.503 16.130 23.231 -0.21054 0.84563 
2.725 361.0 64.194 17.208 24.487 -0.23427 0.82495 
2.750 361.0 69.669 18.416 24.586 -0.24942 0.80039 
2.775 361.0 60.596 19.509 23.921 -0.25528 0.77694 
2.800 370.0 69.692 20.441 23.012 -0.25587 0.75605 
2.825 370.0 68.494 21.331 21.677 -0.25031 0.73537 
2.850 370.0 65.716 22.035 20.075 -0.23875 0.71849 
2.875 370.0 63.251 22.699 18.155 -0.22185 0.70217 
2.900 379.0 73.032 23.238 16.239 -0.20276 0.68865 
2.925 379.0 70.465 23.554 14.284 -0.18077 0.68061 
2.950 379.0 70.918 23.799 12.085 -0.15460 0.67433 
2.975 379.0 68.139 23.832 9.984 -0.12817 0.67347 
3.000 379.0 65.691 23.808 7.820 -0.10050 0.67409 
3.025 379.0 64.015 23.627 5.973 -0.07642 0.67875 
3.050 379.0 61.996 23.340 4.271 -0.05419 0.68608 
3.075 379.0 62.214 22.987 2.847 -0.03571 0.69498 
3.100 372.0 67.213 22.378 1.662 -0.02042 0.71012 
3.125 372.0 70.003 21.800 0.717 -0.00863 0.72417 
3.150 372.0 68.981 21.293 0.127 -0.00150 0.73625 
3.175 372.0 64.031 20.792 359.840 0.00185 0.74798 
3.200 372.0 63.420 20.186 359.949 0.00058 0.76185 
3.225 372.0 61.725 19.776 0.304 -0.00338 0.77105 
3.250 372.0 59.783 19.230 0.978 -0.01062 0.78304 
3.275 381.0 67.120 18.824 2.029 -0.02162 0.79178 
3.300 381.0 65.798 18.542 3.276 -0.03446 0.79776 
3.325 381.0 59.923 18.199 4.805 -0.04971 0.80492 
3.350 391.0 70.368 18.075 6.472 -0.06649 0.80748 
3.375 391.0 71.268 18.080 7.884 -0.08093 0.80736 
3.400 391.0 69.126 18.191 9.275 -0.09560 0.80509 
3.425 391.0 68.893 18.391 10.401 -0.10810 0.80092 
3.450 391.0 67.702 18.514 11.362 -0.11864 0.79833 
3.475 391.0 67.466 18.773 12.041 -0.12712 0.79287 
3.500 391.0 63.378 19.054 12.521 -0.13379 0.78684 
3.525 391.0 62.643 19.214 12.923 -0.13900 0.78339 
3.550 391.0 59.613 19.464 13.132 -0.14276 0.77794 
3.575 400.0 68.821 19.691 13.231 -0.14522 0.77292 
3.600 400.0 67.343 19.848 13.238 -0.14626 0.76944 
3.625 400.0 64.369 19.991 13.255 -0.14733 0.76624 
3.650 400.0 62.607 20.181 13.120 -0.14701 0.76197 
3.675 400.0 61.824 20.340 12.945 -0.14602 0.75837 
3.700 400.0 60.899 20.465 12.738 -0.14445 0.75551 
3.725 410.0 71.213 20.590 12.525 -0.14279 0.75264 
3.750 410.0 67.666 20.636 12.284 -0.14034 0.75160 
3.775 410.0 66.410 20.700 12.084 -0.13844 0.75012 
3.800 410.0 64.165 20.719 11.921 -0.13671 0.74967 
3.825 410.0 61.418 20.713 11.772 -0.13498 0.74981 
3.850 420.0 68.595 20.785 11.582 -0.13322 0.74815 
3.875 420.0 61.984 20.704 11.433 -0.13110 0.75003 
3.900 430.0 66.379 20.748 11.362 -0.13054 0.74899 
3.925 430.0 62.157 20.697 11.297 -0.12954 0.75017 
3.950 442.0 69.657 20.784 11.234 -0.12926 0.74818 
3.975 442.0 64.724 20.690 11.239 -0.12884 0.75035 
4.000 442.0 59.065 20.661 11.291 -0.12928 0.75102 
4.025 455.0 68.600 20.686 11.322 -0.12976 0.75043 
4.050 455.0 64.339 20.671 11.367 -0.13019 0.75078 
4.075 455.0 59.896 20.619 11.484 -0.13124 0.75198 
4.100 469.0 71.368 20.633 11.594 -0.13256 0.75165 
4.125 469.0 65.401 20.566 11.753 -0.13399 0.75319 
4.150 469.0 61.291 20.551 11.873 -0.13526 0.75355 
4.175 469.0 57.413 20.532 12.038 -0.13700 0.75397 
4.200 484.0 68.856 20.507 12.290 -0.13969 0.75454 
4.225 484.0 66.023 20.544 12.415 -0.14129 0.75371 
4.250 484.0 61.914 20.496 12.596 -0.14305 0.75480 
4.275 484.0 59.319 20.530 12.686 -0.14425 0.75402 
4.300 467.0 66.254 20.717 12.848 -0.14715 0.74973 
4.325 467.0 73.286 20.927 12.887 -0.14881 0.74485 
4.350 467.0 74.658 20.925 13.049 -0.15065 0.74488 
4.375 458.0 66.431 21.139 13.079 -0.15223 0.73990 
4.400 458.0 69.104 20.945 13.178 -0.15222 0.74442 
4.425 458.0 67.784 21.089 13.366 -0.15522 0.74106 
4.450 458.0 69.877 21.239 13.269 -0.15500 0.73753 
4.475 458.0 70.776 21.318 13.368 -0.15660 0.73568 
4.500 458.0 69.155 21.206 13.421 -0.15654 0.73830 
4.525 458.0 69.966 21.242 13.490 -0.15756 0.73747 
4.550 458.0 69.522 21.217 13.724 -0.16008 0.73807 
4.575 458.0 68.365 21.349 13.753 -0.16121 0.73493 
4.600 458.0 66.819 21.118 13.835 -0.16074 0.74038 
4.625 458.0 63.612 21.317 13.821 -0.16181 0.73569 
4.650 458.0 63.353 21.337 13.830 -0.16203 0.73522 
4.675 458.0 62.470 21.441 13.749 -0.16173 0.73276 
4.700 458.0 58.229 21.356 13.846 -0.16233 0.73477 
4.725 471.0 71.847 21.422 13.828 -0.16253 0.73322 
4.750 471.0 67.962 21.241 13.927 -0.16255 0.73748 
4.775 471.0 64.644 21.436 13.944 -0.16395 0.73287 
4.800 471.0 63.825 21.510 13.963 -0.16462 0.73112 
4.825 471.0 60.608 21.489 13.956 -0.16441 0.73163 
4.850 482.0 68.537 21.325 14.128 -0.16537 0.73551 
4.875 482.0 68.851 21.414 14.209 -0.16686 0.73339 
4.900 482.0 63.059 21.434 14.067 -0.16535 0.73293 
4.925 482.0 62.597 21.360 14.173 -0.16611 0.73468 
4.950 482.0 62.535 21.494 14.193 -0.16718 0.73149 
4.975 482.0 59.377 21.495 14.215 -0.16745 0.73147 
5.000 497.0 69.545 21.716 14.103 -0.16752 0.72618 
5.025 497.0 68.874 21.493 14.368 -0.16919 0.73153 
5.050 497.0 65.120 21.536 14.320 -0.16892 0.73049 
5.075 497.0 65.487 21.460 14.435 -0.16975 0.73231 
5.100 507.0 71.723 21.535 14.545 -0.17150 0.73051 
5.125 507.0 70.694 21.436 14.699 -0.17264 0.73286 
5.150 507.0 66.919 21.537 14.692 -0.17321 0.73047 
5.175 507.0 63.868 21.582 14.696 -0.17354 0.72941 
5.200 507.0 61.115 21.433 15.008 -0.17616 0.73296 
5.225 519.0 70.136 21.408 14.865 -0.17436 0.73353 
5.250 519.0 66.821 21.494 15.013 -0.17662 0.73150 
5.275 519.0 64.025 21.415 15.169 -0.17788 0.73337 
5.300 519.0 62.728 21.502 15.135 -0.17808 0.73131 
5.325 530.0 69.653 21.567 15.014 -0.17711 0.72977 
5.350 530.0 66.568 21.536 15.266 -0.17981 0.73049 
5.375 530.0 63.545 21.626 15.222 -0.17991 0.72835 
5.400 530.0 63.797 21.512 15.308 -0.18013 0.73108 
5.425 530.0 60.622 21.677 15.403 -0.18234 0.72713 
5.450 541.0 67.277 21.715 15.381 -0.18235 0.72621 
5.475 541.0 65.450 21.689 15.472 -0.18322 0.72684 
5.500 541.0 62.259 21.727 15.536 -0.18422 0.72593 
5.525 552.0 70.197 21.888 15.478 -0.18463 0.72204 
5.550 552.0 65.881 21.728 15.609 -0.18506 0.72591 
5.575 552.0 64.636 21.629 15.890 -0.18762 0.72827 
5.600 552.0 61.173 21.755 15.690 -0.18619 0.72526 
5.625 552.0 59.096 21.817 15.676 -0.18645 0.72377 
5.650 568.0 69.375 21.826 15.805 -0.18801 0.72355 
5.675 568.0 66.059 21.741 15.798 -0.18734 0.72558 
5.700 568.0 61.037 21.778 15.888 -0.18864 0.72471 
5.725 582.0 70.421 21.880 16.020 -0.19088 0.72224 
5.750 582.0 65.673 21.783 16.018 -0.19017 0.72458 
5.775 582.0 61.851 22.014 15.997 -0.19153 0.71901 
5.800 601.0 73.281 22.117 16.100 -0.19346 0.71650 
5.825 601.0 67.676 21.826 16.170 -0.19223 0.72355 
5.850 601.0 63.741 21.913 16.243 -0.19370 0.72145 
5.875 601.0 57.820 21.871 16.258 -0.19357 0.72247 
5.900 617.0 65.529 21.966 16.578 -0.19796 0.72017 
5.925 617.0 61.449 21.931 16.363 -0.19521 0.72101 
5.950 633.0 67.208 21.946 16.549 -0.19748 0.72064 
5.975 633.0 60.427 21.988 16.619 -0.19859 0.71962 
6.000 652.0 70.683 21.923 16.659 -0.19858 0.72121 
6.025 652.0 63.767 21.897 16.489 -0.19642 0.72184 
6.050 665.0 68.016 22.051 16.452 -0.19710 0.71811 
6.075 665.0 63.517 22.003 16.932 -0.20233 0.71926 
6.100 681.0 70.286 21.952 16.639 -0.19856 0.72049 
6.125 681.0 62.519 22.151 16.702 -0.20073 0.71567 
6.150 694.0 67.027 21.836 16.769 -0.19923 0.72330 
6.175 694.0 60.109 22.250 16.811 -0.20271 0.71326 
6.200 710.0 68.200 22.120 16.589 -0.19918 0.71642 
6.225 710.0 61.423 22.095 16.984 -0.20361 0.71702 
6.250 729.0 69.923 22.242 16.663 -0.20093 0.71345 
6.275 729.0 64.886 22.157 16.972 -0.20392 0.71552 
6.300 729.0 57.448 22.233 16.935 -0.20405 0.71366 
6.325 755.0 72.543 22.141 17.001 -0.20414 0.71591 
6.350 755.0 64.272 22.234 17.045 -0.20533 0.71364 
6.375 755.0 55.931 22.284 16.916 -0.20419 0.71242 
6.400 780.0 65.682 22.508 17.036 -0.20722 0.70691 
6.425 780.0 58.411 22.511 17.222 -0.20944 0.70683 
6.450 780.0 51.807 22.368 16.667 -0.20186 0.71036 
6.475 780.0 44.264 22.312 17.319 -0.20911 0.71174 
6.500 780.0 38.959 22.842 16.527 -0.20354 0.69861 

# MINIMA:
0.600 349.0 38.959 0.000 0.127 -0.58282 0.00115 

# MAXIMA:
6.500 3956.1 161.582 44.967 359.949 0.60924 1.00083 

# PEAKS:

# END SPECTRUM

