PE UV                   SPECTRUM    ASCII       PEDS        1.60        
  -1
S19_07.SP
12/04/05
08:07:17.00
12/04/05
08:10:04.00


190.000000
1









4444

SCAN
1
1


0.0
1920.0
2.00
MANUAL



UV/VIS




































#HDR
-1
-1
#GR
NM
%R
0.00002384185791015625
0.0
1000.000000
1.000000
811
8
96.524000
1.246000
#DATA
1000.000000	5.105000  
999.000000	 5.285000  
998.000000	 5.278000  
997.000000	 5.665000  
996.000000	 5.979000  
995.000000	 6.136000  
994.000000	 6.382000  
993.000000	 6.619999  
992.000000	 6.720000  
991.000000	 7.416000  
990.000000	 8.017000  
989.000000	 8.204000  
988.000000	 8.168000  
987.000000	 8.689000  
986.000000	 9.175000  
985.000000	 9.202999  
984.000000	 9.374000  
983.000000	 9.610000  
982.000000	 10.038000 
981.000000	 10.370000 
980.000000	 10.849000 
979.000000	 11.412000 
978.000000	 11.735000 
977.000000	 12.201000 
976.000000	 12.326000 
975.000000	 12.621000 
974.000000	 12.940000 
973.000000	 13.261000 
972.000000	 13.870000 
971.000000	 14.460000 
970.000000	 14.765000 
969.000000	 15.419000 
968.000000	 15.841000 
967.000000	 15.986000 
966.000000	 16.416000 
965.000000	 16.761000 
964.000000	 16.975000 
963.000000	 17.651000 
962.000000	 18.416000 
961.000000	 19.117000 
960.000000	 19.260000 
959.000000	 19.494000 
958.000000	 20.242000 
957.000000	 20.568000 
956.000000	 21.021000 
955.000000	 21.566000 
954.000000	 22.299000 
953.000000	 22.705000 
952.000000	 23.198000 
951.000000	 23.682000 
950.000000	 24.038000 
949.000000	 24.549000 
948.000000	 25.336000 
947.000000	 25.810000 
946.000000	 26.063000 
945.000000	 26.693000 
944.000000	 27.457000 
943.000000	 27.887000 
942.000000	 28.502000 
941.000000	 29.016000 
940.000000	 29.594000 
939.000000	 30.282000 
938.000000	 30.685000 
937.000000	 31.354000 
936.000000	 32.076000 
935.000000	 32.508000 
934.000000	 33.177000 
933.000000	 33.723000 
932.000000	 34.262000 
931.000000	 34.828000 
930.000000	 35.396000 
929.000000	 36.080000 
928.000000	 36.717000 
927.000000	 37.398000 
926.000000	 37.851000 
925.000000	 38.367000 
924.000000	 38.829000 
923.000000	 39.533000 
922.000000	 40.131000 
921.000000	 40.629000 
920.000000	 41.367000 
919.000000	 42.151000 
918.000000	 42.682000 
917.000000	 43.338000 
916.000000	 43.857000 
915.000000	 44.350000 
914.000000	 45.057000 
913.000000	 45.756000 
912.000000	 46.287000 
911.000000	 47.288000 
910.000000	 47.599000 
909.000000	 48.377000 
908.000000	 48.863000 
907.000000	 49.214000 
906.000000	 49.581000 
905.000000	 50.708000 
904.000000	 51.597000 
903.000000	 52.081000 
902.000000	 52.774000 
901.000000	 53.519000 
900.000000	 53.861000 
899.000000	 54.469000 
898.000000	 55.167000 
897.000000	 55.636000 
896.000000	 56.291999 
895.000000	 56.842000 
894.000000	 57.301000 
893.000000	 57.677000 
892.000000	 58.238000 
891.000000	 58.923000 
890.000000	 59.506000 
889.000000	 60.006000 
888.000000	 60.884000 
887.000000	 61.756000 
886.000000	 62.068000 
885.000000	 62.569000 
884.000000	 63.263000 
883.000000	 63.722000 
882.000000	 64.286000 
881.000000	 65.197000 
880.000000	 65.557000 
879.000000	 65.686000 
878.000000	 66.717000 
877.000000	 67.345999 
876.000000	 68.351000 
875.000000	 68.864999 
874.000000	 69.262000 
873.000000	 69.694000 
872.000000	 69.474000 
871.000000	 71.123000 
870.000000	 71.455000 
869.000000	 71.933000 
868.000000	 72.728000 
867.000000	 72.720000 
866.000000	 73.662000 
865.000000	 73.472000 
864.000000	 74.214000 
863.000000	 75.559000 
862.000000	 75.471999 
861.000000	 75.771999 
860.000000	 76.173999 
859.000000	 77.036000 
858.000000	 77.275000 
857.000000	 77.976000 
856.000000	 78.610000 
855.000000	 79.223000 
854.000000	 79.610000 
853.000000	 80.241000 
852.000000	 80.827000 
851.000000	 80.671000 
850.000000	 81.155000 
849.000000	 81.443000 
848.000000	 82.093999 
847.000000	 82.179000 
846.000000	 82.753000 
845.000000	 83.199000 
844.000000	 83.658999 
843.000000	 84.275000 
842.000000	 84.547000 
841.000000	 84.892000 
840.000000	 85.943000 
839.000000	 86.404000 
838.000000	 86.533000 
837.000000	 86.607999 
836.000000	 87.544000 
835.000000	 87.181000 
834.000000	 87.694000 
833.000000	 87.460000 
832.000000	 88.665000 
831.000000	 89.327000 
830.000000	 89.660000 
829.000000	 89.815000 
828.000000	 89.525000 
827.000000	 89.927000 
826.000000	 90.683000 
825.000000	 90.978000 
824.000000	 91.186000 
823.000000	 91.164000 
822.000000	 91.766000 
821.000000	 92.152999 
820.000000	 92.372000 
819.000000	 92.879000 
818.000000	 92.805000 
817.000000	 92.971000 
816.000000	 93.164999 
815.000000	 93.270000 
814.000000	 93.622000 
813.000000	 93.652999 
812.000000	 93.983000 
811.000000	 94.337000 
810.000000	 94.549000 
809.000000	 94.652000 
808.000000	 94.595000 
807.000000	 94.567000 
806.000000	 94.858000 
805.000000	 94.986000 
804.000000	 95.190000 
803.000000	 95.367000 
802.000000	 95.358000 
801.000000	 95.627000 
800.000000	 95.509000 
799.000000	 95.741000 
798.000000	 95.930000 
797.000000	 96.116000 
796.000000	 95.658000 
795.000000	 95.572999 
794.000000	 95.917000 
793.000000	 96.524000 
792.000000	 96.090000 
791.000000	 96.452000 
790.000000	 96.393000 
789.000000	 96.286000 
788.000000	 95.687000 
787.000000	 95.999000 
786.000000	 96.072999 
785.000000	 96.417000 
784.000000	 96.492999 
783.000000	 95.953999 
782.000000	 96.005000 
781.000000	 95.763000 
780.000000	 95.894000 
779.000000	 95.981000 
778.000000	 96.081000 
777.000000	 95.911999 
776.000000	 95.940000 
775.000000	 95.685000 
774.000000	 95.649000 
773.000000	 95.376000 
772.000000	 95.391000 
771.000000	 95.145000 
770.000000	 95.084999 
769.000000	 94.886000 
768.000000	 94.331000 
767.000000	 94.042999 
766.000000	 93.932000 
765.000000	 93.847000 
764.000000	 93.625000 
763.000000	 93.410000 
762.000000	 93.213000 
761.000000	 92.852000 
760.000000	 92.479999 
759.000000	 92.316000 
758.000000	 91.864000 
757.000000	 91.566999 
756.000000	 91.257000 
755.000000	 91.279000 
754.000000	 90.756000 
753.000000	 90.191000 
752.000000	 89.654000 
751.000000	 89.429999 
750.000000	 88.779000 
749.000000	 88.414000 
748.000000	 88.070000 
747.000000	 87.695000 
746.000000	 87.122000 
745.000000	 86.614000 
744.000000	 86.551999 
743.000000	 85.775000 
742.000000	 85.007000 
741.000000	 84.547000 
740.000000	 84.067000 
739.000000	 83.494000 
738.000000	 83.111000 
737.000000	 82.646000 
736.000000	 82.001000 
735.000000	 81.399000 
734.000000	 80.813999 
733.000000	 79.952000 
732.000000	 79.230999 
731.000000	 78.693000 
730.000000	 78.341000 
729.000000	 77.496000 
728.000000	 76.732000 
727.000000	 76.035000 
726.000000	 75.220000 
725.000000	 74.614000 
724.000000	 73.982000 
723.000000	 73.189000 
722.000000	 72.346000 
721.000000	 71.673000 
720.000000	 70.996000 
719.000000	 70.101000 
718.000000	 69.193000 
717.000000	 68.616999 
716.000000	 67.888000 
715.000000	 67.018999 
714.000000	 66.128000 
713.000000	 65.268000 
712.000000	 64.343999 
711.000000	 63.374000 
710.000000	 62.614000 
709.000000	 61.658000 
708.000000	 60.755000 
707.000000	 59.977000 
706.000000	 58.828000 
705.000000	 57.936000 
704.000000	 56.942000 
703.000000	 55.913000 
702.000000	 54.964000 
701.000000	 54.054000 
700.000000	 53.225000 
699.000000	 52.230000 
698.000000	 51.127999 
697.000000	 50.238000 
696.000000	 49.172000 
695.000000	 47.828000 
694.000000	 46.829000 
693.000000	 45.875000 
692.000000	 44.835000 
691.000000	 43.784000 
690.000000	 42.728000 
689.000000	 41.680000 
688.000000	 40.521000 
687.000000	 39.485000 
686.000000	 38.317000 
685.000000	 37.300000 
684.000000	 36.123000 
683.000000	 35.030000 
682.000000	 34.121000 
681.000000	 33.011000 
680.000000	 31.881000 
679.000000	 30.815000 
678.000000	 29.724000 
677.000000	 28.589000 
676.000000	 27.630000 
675.000000	 26.565000 
674.000000	 25.458000 
673.000000	 24.384000 
672.000000	 23.428000 
671.000000	 22.354000 
670.000000	 21.278000 
669.000000	 20.145000 
668.000000	 19.247000 
667.000000	 18.536000 
666.000000	 17.431000 
665.000000	 16.390000 
664.000000	 15.621000 
663.000000	 14.745000 
662.000000	 13.785000 
661.000000	 12.997000 
660.000000	 12.163000 
659.000000	 11.398000 
658.000000	 10.477000 
657.000000	 9.678000  
656.000000	 8.898999  
655.000000	 8.172000  
654.000000	 7.550999  
653.000000	 6.776000  
652.000000	 6.441000  
651.000000	 5.899000  
650.000000	 5.278000  
649.000000	 4.689000  
648.000000	 4.082000  
647.000000	 3.755000  
646.000000	 3.297000  
645.000000	 2.910000  
644.000000	 2.694000  
643.000000	 2.403000  
642.000000	 2.143000  
641.000000	 1.903000  
640.000000	 1.662000  
639.000000	 1.440000  
638.000000	 1.279000  
637.000000	 1.298000  
636.000000	 1.257000  
635.000000	 1.246000  
634.000000	 1.317000  
633.000000	 1.548000  
632.000000	 1.632000  
631.000000	 1.690000  
630.000000	 1.879000  
629.000000	 2.196000  
628.000000	 2.588000  
627.000000	 2.933000  
626.000000	 3.406000  
625.000000	 3.860000  
624.000000	 4.290000  
623.000000	 4.689000  
622.000000	 5.260000  
621.000000	 5.758000  
620.000000	 6.446000  
619.000000	 7.170999  
618.000000	 7.925000  
617.000000	 8.670999  
616.000000	 9.407000  
615.000000	 10.141000 
614.000000	 10.915000 
613.000000	 11.775000 
612.000000	 12.576000 
611.000000	 13.493000 
610.000000	 14.363000 
609.000000	 15.395000 
608.000000	 16.361000 
607.000000	 17.287000 
606.000000	 18.288000 
605.000000	 19.239000 
604.000000	 20.238000 
603.000000	 21.334000 
602.000000	 22.478000 
601.000000	 23.569000 
600.000000	 24.652000 
599.000000	 25.773000 
598.000000	 26.820000 
597.000000	 27.793000 
596.000000	 28.832000 
595.000000	 30.076000 
594.000000	 31.143000 
593.000000	 32.185000 
592.000000	 33.329000 
591.000000	 34.532000 
590.000000	 35.636000 
589.000000	 36.712000 
588.000000	 37.846000 
587.000000	 38.924000 
586.000000	 39.925000 
585.000000	 40.973000 
584.000000	 42.145000 
583.000000	 43.217000 
582.000000	 44.302000 
581.000000	 45.269000 
580.000000	 46.255000 
579.000000	 47.240000 
578.000000	 48.187000 
577.000000	 49.112000 
576.000000	 50.086000 
575.000000	 51.111000 
574.000000	 52.000000 
573.000000	 52.888000 
572.000000	 53.725000 
571.000000	 54.645000 
570.000000	 55.367999 
569.000000	 56.143000 
568.000000	 56.952000 
567.000000	 57.701000 
566.000000	 58.404999 
565.000000	 59.194000 
564.000000	 59.843999 
563.000000	 60.579000 
562.000000	 61.099000 
561.000000	 61.574000 
560.000000	 62.159000 
559.000000	 62.770000 
558.000000	 63.283000 
557.000000	 63.699000 
556.000000	 64.085000 
555.000000	 64.563999 
554.000000	 64.893000 
553.000000	 65.239000 
552.000000	 65.566999 
551.000000	 65.848000 
550.000000	 66.160000 
549.000000	 66.512000 
548.000000	 66.721000 
547.000000	 66.765000 
546.000000	 66.929000 
545.000000	 67.155000 
544.000000	 67.233000 
543.000000	 67.211000 
542.000000	 67.298000 
541.000000	 67.200999 
540.000000	 66.999000 
539.000000	 66.976000 
538.000000	 67.027999 
537.000000	 66.739000 
536.000000	 66.372000 
535.000000	 66.215000 
534.000000	 65.974000 
533.000000	 65.673000 
532.000000	 65.381999 
531.000000	 65.075999 
530.000000	 64.661000 
529.000000	 64.196000 
528.000000	 63.675000 
527.000000	 63.245000 
526.000000	 62.627000 
525.000000	 62.005999 
524.000000	 61.592000 
523.000000	 60.833000 
522.000000	 60.195000 
521.000000	 59.522000 
520.000000	 58.806000 
519.000000	 57.952000 
518.000000	 57.273000 
517.000000	 56.436000 
516.000000	 55.511999 
515.000000	 54.663000 
514.000000	 53.760000 
513.000000	 52.733000 
512.000000	 51.840000 
511.000000	 50.962000 
510.000000	 49.948000 
509.000000	 48.820000 
508.000000	 47.799000 
507.000000	 46.648000 
506.000000	 45.560000 
505.000000	 44.543000 
504.000000	 43.440000 
503.000000	 42.287000 
502.000000	 41.057000 
501.000000	 39.887000 
500.000000	 38.744000 
499.000000	 37.510000 
498.000000	 36.300000 
497.000000	 35.119000 
496.000000	 34.006000 
495.000000	 32.851000 
494.000000	 31.592000 
493.000000	 30.338000 
492.000000	 29.101000 
491.000000	 27.968000 
490.000000	 26.881000 
489.000000	 25.680000 
488.000000	 24.754000 
487.000000	 23.596000 
486.000000	 22.584000 
485.000000	 21.561000 
484.000000	 20.521000 
483.000000	 19.481000 
482.000000	 18.454000 
481.000000	 17.574000 
480.000000	 16.822000 
479.000000	 16.014000 
478.000000	 15.422000 
477.000000	 14.687000 
476.000000	 13.947000 
475.000000	 13.346000 
474.000000	 12.787000 
473.000000	 12.291000 
472.000000	 11.922000 
471.000000	 11.387000 
470.000000	 11.154000 
469.000000	 10.905000 
468.000000	 10.764000 
467.000000	 10.604000 
466.000000	 10.579000 
465.000000	 10.591000 
464.000000	 10.465000 
463.000000	 10.443000 
462.000000	 10.518000 
461.000000	 10.775000 
460.000000	 10.978000 
459.000000	 11.273000 
458.000000	 11.642000 
457.000000	 11.927000 
456.000000	 12.288000 
455.000000	 12.870000 
454.000000	 13.337000 
453.000000	 13.809000 
452.000000	 14.463000 
451.000000	 15.185000 
450.000000	 15.787000 
449.000000	 16.475000 
448.000000	 17.085000 
447.000000	 17.726000 
446.000000	 18.266000 
445.000000	 18.991000 
444.000000	 19.754000 
443.000000	 20.521000 
442.000000	 21.205000 
441.000000	 22.032000 
440.000000	 22.923000 
439.000000	 23.453000 
438.000000	 24.215000 
437.000000	 25.077000 
436.000000	 25.707000 
435.000000	 26.639000 
434.000000	 27.271000 
433.000000	 27.598000 
432.000000	 28.316000 
431.000000	 29.152000 
430.000000	 29.634000 
429.000000	 29.969000 
428.000000	 30.778000 
427.000000	 31.053000 
426.000000	 31.542000 
425.000000	 32.103000 
424.000000	 32.714000 
423.000000	 33.214000 
422.000000	 33.402000 
421.000000	 33.754000 
420.000000	 33.716000 
419.000000	 33.884000 
418.000000	 34.166999 
417.000000	 34.494000 
416.000000	 34.611999 
415.000000	 34.643000 
414.000000	 34.706000 
413.000000	 34.669000 
412.000000	 34.703000 
411.000000	 34.535000 
410.000000	 34.464000 
409.000000	 34.411000 
408.000000	 34.193000 
407.000000	 34.102000 
406.000000	 33.949000 
405.000000	 33.367999 
404.000000	 32.820000 
403.000000	 32.368000 
402.000000	 32.102000 
401.000000	 31.838000 
400.000000	 31.916000 
399.000000	 31.088000 
398.000000	 30.807000 
397.000000	 30.160000 
396.000000	 29.359000 
395.000000	 29.115000 
394.000000	 28.524000 
393.000000	 28.012000 
392.000000	 26.742000 
391.000000	 26.327000 
390.000000	 25.760000 
389.000000	 25.359000 
388.000000	 24.770000 
387.000000	 24.215000 
386.000000	 23.582000 
385.000000	 22.586000 
384.000000	 21.915000 
383.000000	 21.572000 
382.000000	 21.013000 
381.000000	 19.615000 
380.000000	 19.050000 
379.000000	 18.667000 
378.000000	 18.136000 
377.000000	 17.433000 
376.000000	 17.656000 
375.000000	 16.898000 
374.000000	 16.554000 
373.000000	 16.438000 
372.000000	 16.365000 
371.000000	 15.940000 
370.000000	 15.461000 
369.000000	 15.416000 
368.000000	 15.122000 
367.000000	 14.634000 
366.000000	 14.707000 
365.000000	 14.705000 
364.000000	 15.093000 
363.000000	 15.184000 
362.000000	 15.589000 
361.000000	 15.953000 
360.000000	 16.163000 
359.000000	 15.872000 
358.000000	 16.167000 
357.000000	 15.892000 
356.000000	 16.766000 
355.000000	 17.039000 
354.000000	 17.539000 
353.000000	 17.580000 
352.000000	 18.545000 
351.000000	 18.501000 
350.000000	 17.385000 
349.000000	 17.640000 
348.000000	 18.854000 
347.000000	 18.646000 
346.000000	 19.899000 
345.000000	 20.595000 
344.000000	 20.121000 
343.000000	 20.421000 
342.000000	 20.511000 
341.000000	 20.460000 
340.000000	 20.581000 
339.000000	 20.792000 
338.000000	 21.145000 
337.000000	 21.223000 
336.000000	 21.013000 
335.000000	 21.001000 
334.000000	 21.025000 
333.000000	 21.229000 
332.000000	 21.138000 
331.000000	 20.288000 
330.000000	 20.847000 
329.000000	 20.824000 
328.000000	 21.688000 
327.000000	 21.145000 
326.000000	 20.980000 
325.000000	 21.238000 
324.000000	 21.125000 
323.000000	 20.631000 
322.000000	 20.798000 
321.000000	 20.346000 
320.000000	 19.939000 
319.000000	 19.803000 
318.000000	 19.798000 
317.000000	 19.935000 
316.000000	 20.070000 
315.000000	 20.073000 
314.000000	 19.861000 
313.000000	 19.511000 
312.000000	 18.936000 
311.000000	 18.908000 
310.000000	 18.518000 
309.000000	 18.296000 
308.000000	 18.785000 
307.000000	 18.605000 
306.000000	 18.619000 
305.000000	 18.044000 
304.000000	 18.260000 
303.000000	 17.389000 
302.000000	 17.520000 
301.000000	 17.215000 
300.000000	 17.095000 
299.000000	 16.920000 
298.000000	 16.868000 
297.000000	 16.639000 
296.000000	 16.438000 
295.000000	 16.089000 
294.000000	 16.040000 
293.000000	 15.844000 
292.000000	 15.829000 
291.000000	 15.920000 
290.000000	 15.562000 
289.000000	 15.252000 
288.000000	 15.255000 
287.000000	 15.312000 
286.000000	 15.023000 
285.000000	 15.058000 
284.000000	 14.980000 
283.000000	 15.169000 
282.000000	 15.226000 
281.000000	 15.072000 
280.000000	 15.101000 
279.000000	 15.081000 
278.000000	 14.864000 
277.000000	 14.816000 
276.000000	 14.887000 
275.000000	 14.782000 
274.000000	 14.876000 
273.000000	 15.246000 
272.000000	 15.204000 
271.000000	 14.990000 
270.000000	 14.928000 
269.000000	 14.839000 
268.000000	 14.885000 
267.000000	 14.916000 
266.000000	 14.986000 
265.000000	 15.320000 
264.000000	 15.322000 
263.000000	 15.363000 
262.000000	 15.403000 
261.000000	 15.445000 
260.000000	 15.412000 
259.000000	 15.549000 
258.000000	 15.786000 
257.000000	 15.649000 
256.000000	 15.611000 
255.000000	 15.998000 
254.000000	 16.188000 
253.000000	 16.183000 
252.000000	 15.959000 
251.000000	 15.939000 
250.000000	 15.848000 
249.000000	 16.198000 
248.000000	 16.518000 
247.000000	 16.508000 
246.000000	 16.402000 
245.000000	 16.626000 
244.000000	 16.707000 
243.000000	 16.712000 
242.000000	 16.774000 
241.000000	 16.855000 
240.000000	 16.507000 
239.000000	 16.715000 
238.000000	 17.290000 
237.000000	 17.325000 
236.000000	 17.310000 
235.000000	 17.523000 
234.000000	 17.317000 
233.000000	 17.341000 
232.000000	 17.331000 
231.000000	 16.731000 
230.000000	 16.748000 
229.000000	 17.067000 
228.000000	 17.567000 
227.000000	 17.349000 
226.000000	 16.595000 
225.000000	 16.652000 
224.000000	 15.929000 
223.000000	 15.940000 
222.000000	 16.617000 
221.000000	 17.169000 
220.000000	 17.012000 
219.000000	 16.753000 
218.000000	 16.366000 
217.000000	 16.548000 
216.000000	 14.906000 
215.000000	 15.736000 
214.000000	 17.222000 
213.000000	 17.477000 
212.000000	 17.472000 
211.000000	 17.234000 
210.000000	 17.370000 
209.000000	 17.289000 
208.000000	 18.451000 
207.000000	 18.143000 
206.000000	 17.045000 
205.000000	 17.688000 
204.000000	 17.226000 
203.000000	 18.825000 
202.000000	 20.710000 
201.000000	 23.711000 
200.000000	 21.090000 
199.000000	 15.649000 
198.000000	 12.368000 
197.000000	 16.450000 
196.000000	 17.301000 
195.000000	 13.571000 
194.000000	 25.914000 
193.000000	 25.877000 
192.000000	 22.688000 
191.000000	 29.997000 
190.000000	 15.911000 

