PE UV                   SPECTRUM    ASCII       PEDS        1.60        
  -1
S19_05.SP
12/04/05
08:03:27.00
12/04/05
08:10:05.00


190.000000
1









4444

SCAN
1
1


0.0
1920.0
2.00
MANUAL



UV/VIS




































#HDR
-1
-1
#GR
NM
%R
0.00002384185791015625
0.0
1000.000000
1.000000
811
8
96.709999
1.139000
#DATA
1000.000000	5.760000  
999.000000	 5.986000  
998.000000	 5.896000  
997.000000	 5.901000  
996.000000	 6.346000  
995.000000	 6.222000  
994.000000	 6.994000  
993.000000	 7.222000  
992.000000	 7.005000  
991.000000	 6.979000  
990.000000	 7.678999  
989.000000	 8.155999  
988.000000	 8.581999  
987.000000	 8.811000  
986.000000	 9.145000  
985.000000	 9.138999  
984.000000	 9.272000  
983.000000	 9.895000  
982.000000	 10.242000 
981.000000	 10.489000 
980.000000	 10.994000 
979.000000	 11.466000 
978.000000	 12.093000 
977.000000	 12.180000 
976.000000	 12.283000 
975.000000	 12.675000 
974.000000	 12.988000 
973.000000	 13.455000 
972.000000	 14.075000 
971.000000	 14.584000 
970.000000	 15.005000 
969.000000	 15.573000 
968.000000	 16.260000 
967.000000	 16.231000 
966.000000	 16.348000 
965.000000	 16.572000 
964.000000	 17.463000 
963.000000	 17.783000 
962.000000	 18.532000 
961.000000	 19.025000 
960.000000	 19.557000 
959.000000	 20.118000 
958.000000	 20.310000 
957.000000	 20.642000 
956.000000	 21.305000 
955.000000	 21.745000 
954.000000	 22.390000 
953.000000	 22.754000 
952.000000	 23.641000 
951.000000	 23.982000 
950.000000	 24.479000 
949.000000	 24.981000 
948.000000	 25.534000 
947.000000	 26.114000 
946.000000	 26.743000 
945.000000	 27.289000 
944.000000	 27.755000 
943.000000	 28.240000 
942.000000	 28.777000 
941.000000	 29.304000 
940.000000	 29.630000 
939.000000	 30.335000 
938.000000	 31.056000 
937.000000	 31.668000 
936.000000	 32.258000 
935.000000	 32.730000 
934.000000	 33.282000 
933.000000	 33.887000 
932.000000	 34.504000 
931.000000	 35.176000 
930.000000	 35.698000 
929.000000	 36.266000 
928.000000	 36.855000 
927.000000	 37.350000 
926.000000	 38.003000 
925.000000	 38.664000 
924.000000	 39.245000 
923.000000	 39.731000 
922.000000	 40.320000 
921.000000	 40.928000 
920.000000	 41.671000 
919.000000	 42.193000 
918.000000	 42.897000 
917.000000	 43.528000 
916.000000	 44.448000 
915.000000	 44.732000 
914.000000	 45.348000 
913.000000	 46.027000 
912.000000	 46.678000 
911.000000	 47.569000 
910.000000	 47.694000 
909.000000	 48.527000 
908.000000	 48.631000 
907.000000	 49.508000 
906.000000	 50.379000 
905.000000	 50.927000 
904.000000	 51.548000 
903.000000	 52.037000 
902.000000	 52.837999 
901.000000	 53.413000 
900.000000	 54.299000 
899.000000	 54.876000 
898.000000	 55.249000 
897.000000	 55.823000 
896.000000	 56.568000 
895.000000	 57.003000 
894.000000	 57.508000 
893.000000	 58.052000 
892.000000	 58.818000 
891.000000	 59.280000 
890.000000	 59.723000 
889.000000	 60.376000 
888.000000	 60.866000 
887.000000	 61.588000 
886.000000	 62.161999 
885.000000	 62.395000 
884.000000	 63.222000 
883.000000	 63.982000 
882.000000	 64.703000 
881.000000	 66.107000 
880.000000	 65.800000 
879.000000	 65.878000 
878.000000	 66.932999 
877.000000	 67.979000 
876.000000	 67.489000 
875.000000	 68.691000 
874.000000	 69.769000 
873.000000	 70.384000 
872.000000	 70.942000 
871.000000	 70.926999 
870.000000	 71.599999 
869.000000	 72.114999 
868.000000	 72.387000 
867.000000	 72.971000 
866.000000	 73.282000 
865.000000	 73.789000 
864.000000	 74.568000 
863.000000	 75.224999 
862.000000	 75.456000 
861.000000	 76.145000 
860.000000	 77.097000 
859.000000	 76.619000 
858.000000	 77.098999 
857.000000	 78.142000 
856.000000	 79.044000 
855.000000	 79.089000 
854.000000	 79.640999 
853.000000	 80.169000 
852.000000	 79.994000 
851.000000	 81.076000 
850.000000	 81.830000 
849.000000	 82.069999 
848.000000	 81.496000 
847.000000	 83.095000 
846.000000	 83.636000 
845.000000	 83.674000 
844.000000	 84.209999 
843.000000	 84.992000 
842.000000	 85.221999 
841.000000	 85.017000 
840.000000	 85.506000 
839.000000	 86.429999 
838.000000	 86.645000 
837.000000	 86.912000 
836.000000	 87.598000 
835.000000	 87.140000 
834.000000	 87.880000 
833.000000	 88.341000 
832.000000	 88.620000 
831.000000	 89.357000 
830.000000	 90.008000 
829.000000	 89.520000 
828.000000	 90.078000 
827.000000	 89.670000 
826.000000	 91.246000 
825.000000	 91.242999 
824.000000	 90.459999 
823.000000	 91.625000 
822.000000	 91.738000 
821.000000	 91.999000 
820.000000	 92.160000 
819.000000	 92.317000 
818.000000	 92.502000 
817.000000	 93.057999 
816.000000	 93.500000 
815.000000	 93.673000 
814.000000	 93.504000 
813.000000	 93.752000 
812.000000	 93.852000 
811.000000	 93.945000 
810.000000	 94.398000 
809.000000	 94.257000 
808.000000	 94.389000 
807.000000	 94.503000 
806.000000	 94.738999 
805.000000	 95.069999 
804.000000	 95.755000 
803.000000	 95.797000 
802.000000	 95.732000 
801.000000	 95.509000 
800.000000	 95.989999 
799.000000	 95.750999 
798.000000	 95.840999 
797.000000	 96.155999 
796.000000	 95.801999 
795.000000	 95.690000 
794.000000	 96.052000 
793.000000	 96.397000 
792.000000	 95.860999 
791.000000	 96.401000 
790.000000	 96.709999 
789.000000	 96.273000 
788.000000	 96.391000 
787.000000	 96.367000 
786.000000	 96.551000 
785.000000	 96.096000 
784.000000	 96.364999 
783.000000	 96.272000 
782.000000	 96.023000 
781.000000	 96.181000 
780.000000	 96.014000 
779.000000	 96.259000 
778.000000	 96.170999 
777.000000	 96.313000 
776.000000	 95.784000 
775.000000	 95.694999 
774.000000	 95.533000 
773.000000	 95.822000 
772.000000	 95.631999 
771.000000	 95.264000 
770.000000	 94.733999 
769.000000	 94.611999 
768.000000	 94.603000 
767.000000	 94.289999 
766.000000	 94.057000 
765.000000	 93.789999 
764.000000	 93.166000 
763.000000	 93.021000 
762.000000	 92.734000 
761.000000	 92.578000 
760.000000	 92.308000 
759.000000	 91.729000 
758.000000	 91.465000 
757.000000	 91.349000 
756.000000	 91.049000 
755.000000	 90.505000 
754.000000	 90.208000 
753.000000	 90.229000 
752.000000	 89.583000 
751.000000	 88.962000 
750.000000	 88.669000 
749.000000	 88.619000 
748.000000	 87.968999 
747.000000	 87.270000 
746.000000	 86.908000 
745.000000	 86.319999 
744.000000	 86.196000 
743.000000	 85.605000 
742.000000	 85.224000 
741.000000	 84.711000 
740.000000	 84.020000 
739.000000	 83.553000 
738.000000	 83.018000 
737.000000	 82.342000 
736.000000	 81.392000 
735.000000	 80.950000 
734.000000	 80.423999 
733.000000	 79.715999 
732.000000	 79.096000 
731.000000	 78.500000 
730.000000	 77.816000 
729.000000	 77.155000 
728.000000	 76.563000 
727.000000	 75.827000 
726.000000	 75.068000 
725.000000	 74.287000 
724.000000	 73.681000 
723.000000	 72.729999 
722.000000	 71.965000 
721.000000	 71.390000 
720.000000	 70.621000 
719.000000	 69.789000 
718.000000	 69.045999 
717.000000	 68.379000 
716.000000	 67.508000 
715.000000	 66.546000 
714.000000	 65.788000 
713.000000	 64.908999 
712.000000	 64.130000 
711.000000	 63.190000 
710.000000	 62.212000 
709.000000	 61.342000 
708.000000	 60.401000 
707.000000	 59.432000 
706.000000	 58.367999 
705.000000	 57.487999 
704.000000	 56.663000 
703.000000	 55.554000 
702.000000	 54.676000 
701.000000	 53.529000 
700.000000	 52.710000 
699.000000	 51.510000 
698.000000	 50.543000 
697.000000	 49.519000 
696.000000	 48.491000 
695.000000	 47.558000 
694.000000	 46.420000 
693.000000	 45.467000 
692.000000	 44.391000 
691.000000	 43.305000 
690.000000	 42.296000 
689.000000	 41.193000 
688.000000	 40.202000 
687.000000	 38.974000 
686.000000	 37.963000 
685.000000	 36.883000 
684.000000	 35.732000 
683.000000	 34.753000 
682.000000	 33.727000 
681.000000	 32.604000 
680.000000	 31.490000 
679.000000	 30.401000 
678.000000	 29.194000 
677.000000	 28.159000 
676.000000	 27.127000 
675.000000	 26.099000 
674.000000	 25.161000 
673.000000	 24.148000 
672.000000	 23.128000 
671.000000	 22.064000 
670.000000	 20.895000 
669.000000	 20.074000 
668.000000	 19.149000 
667.000000	 18.159000 
666.000000	 17.086000 
665.000000	 16.249000 
664.000000	 15.274000 
663.000000	 14.264000 
662.000000	 13.474000 
661.000000	 12.648000 
660.000000	 11.745000 
659.000000	 10.912000 
658.000000	 10.276000 
657.000000	 9.587000  
656.000000	 8.858000  
655.000000	 8.079000  
654.000000	 7.342000  
653.000000	 6.666999  
652.000000	 6.230000  
651.000000	 5.707000  
650.000000	 5.028000  
649.000000	 4.476000  
648.000000	 4.008000  
647.000000	 3.574000  
646.000000	 3.164000  
645.000000	 2.779000  
644.000000	 2.497000  
643.000000	 2.220000  
642.000000	 1.955000  
641.000000	 1.826000  
640.000000	 1.625000  
639.000000	 1.383000  
638.000000	 1.244000  
637.000000	 1.139000  
636.000000	 1.178000  
635.000000	 1.314000  
634.000000	 1.436000  
633.000000	 1.501000  
632.000000	 1.622000  
631.000000	 1.808000  
630.000000	 1.962000  
629.000000	 2.258000  
628.000000	 2.664000  
627.000000	 2.989000  
626.000000	 3.437000  
625.000000	 3.877000  
624.000000	 4.370000  
623.000000	 4.837000  
622.000000	 5.367000  
621.000000	 5.892000  
620.000000	 6.665000  
619.000000	 7.194000  
618.000000	 8.045000  
617.000000	 8.878000  
616.000000	 9.614000  
615.000000	 10.295000 
614.000000	 11.130000 
613.000000	 11.987000 
612.000000	 12.729000 
611.000000	 13.714000 
610.000000	 14.635000 
609.000000	 15.640000 
608.000000	 16.603000 
607.000000	 17.536000 
606.000000	 18.497000 
605.000000	 19.599000 
604.000000	 20.566000 
603.000000	 21.563000 
602.000000	 22.624000 
601.000000	 23.714000 
600.000000	 24.821000 
599.000000	 25.923000 
598.000000	 27.033000 
597.000000	 28.115000 
596.000000	 29.261000 
595.000000	 30.260000 
594.000000	 31.312000 
593.000000	 32.396000 
592.000000	 33.541000 
591.000000	 34.715000 
590.000000	 35.778000 
589.000000	 36.888000 
588.000000	 37.950000 
587.000000	 39.027000 
586.000000	 40.169000 
585.000000	 41.236000 
584.000000	 42.319000 
583.000000	 43.462000 
582.000000	 44.494000 
581.000000	 45.537000 
580.000000	 46.498000 
579.000000	 47.486000 
578.000000	 48.446000 
577.000000	 49.394000 
576.000000	 50.300000 
575.000000	 51.237999 
574.000000	 52.145000 
573.000000	 53.076000 
572.000000	 53.963000 
571.000000	 54.827000 
570.000000	 55.514000 
569.000000	 56.232000 
568.000000	 57.013000 
567.000000	 57.818000 
566.000000	 58.565000 
565.000000	 59.177000 
564.000000	 60.026999 
563.000000	 60.636000 
562.000000	 61.185999 
561.000000	 61.720000 
560.000000	 62.249000 
559.000000	 62.816000 
558.000000	 63.298000 
557.000000	 63.759999 
556.000000	 64.297000 
555.000000	 64.622000 
554.000000	 64.925000 
553.000000	 65.250000 
552.000000	 65.590999 
551.000000	 65.937000 
550.000000	 66.155000 
549.000000	 66.415000 
548.000000	 66.649999 
547.000000	 66.821000 
546.000000	 67.040000 
545.000000	 67.234000 
544.000000	 67.276000 
543.000000	 67.357000 
542.000000	 67.384000 
541.000000	 67.322000 
540.000000	 67.164999 
539.000000	 67.157000 
538.000000	 67.000000 
537.000000	 66.818999 
536.000000	 66.696000 
535.000000	 66.514000 
534.000000	 66.200000 
533.000000	 65.846999 
532.000000	 65.526000 
531.000000	 65.147000 
530.000000	 64.788000 
529.000000	 64.366999 
528.000000	 63.822999 
527.000000	 63.325000 
526.000000	 62.712000 
525.000000	 62.202000 
524.000000	 61.635000 
523.000000	 60.928000 
522.000000	 60.311000 
521.000000	 59.604000 
520.000000	 58.874000 
519.000000	 58.114000 
518.000000	 57.410000 
517.000000	 56.446000 
516.000000	 55.645000 
515.000000	 54.755000 
514.000000	 53.840000 
513.000000	 52.855000 
512.000000	 51.932000 
511.000000	 50.940000 
510.000000	 49.899000 
509.000000	 48.861000 
508.000000	 47.746000 
507.000000	 46.709000 
506.000000	 45.585000 
505.000000	 44.533000 
504.000000	 43.346000 
503.000000	 42.206000 
502.000000	 41.090000 
501.000000	 39.931000 
500.000000	 38.718000 
499.000000	 37.445000 
498.000000	 36.178000 
497.000000	 34.912000 
496.000000	 33.719000 
495.000000	 32.623000 
494.000000	 31.425000 
493.000000	 30.262000 
492.000000	 29.054000 
491.000000	 27.811000 
490.000000	 26.621000 
489.000000	 25.551000 
488.000000	 24.500000 
487.000000	 23.466000 
486.000000	 22.344000 
485.000000	 21.374000 
484.000000	 20.492000 
483.000000	 19.454000 
482.000000	 18.482000 
481.000000	 17.496000 
480.000000	 16.614000 
479.000000	 15.993000 
478.000000	 15.225000 
477.000000	 14.618000 
476.000000	 13.922000 
475.000000	 13.342000 
474.000000	 12.739000 
473.000000	 12.101000 
472.000000	 11.750000 
471.000000	 11.360000 
470.000000	 11.020000 
469.000000	 10.940000 
468.000000	 10.664000 
467.000000	 10.429000 
466.000000	 10.336000 
465.000000	 10.206000 
464.000000	 10.268000 
463.000000	 10.409000 
462.000000	 10.594000 
461.000000	 10.882000 
460.000000	 11.069000 
459.000000	 11.425000 
458.000000	 11.703000 
457.000000	 12.009000 
456.000000	 12.471000 
455.000000	 12.990000 
454.000000	 13.460000 
453.000000	 13.946000 
452.000000	 14.541000 
451.000000	 15.044000 
450.000000	 15.841000 
449.000000	 16.643000 
448.000000	 17.181000 
447.000000	 17.849000 
446.000000	 18.585000 
445.000000	 19.316000 
444.000000	 19.721000 
443.000000	 20.748000 
442.000000	 21.643000 
441.000000	 22.231000 
440.000000	 22.953000 
439.000000	 23.466000 
438.000000	 24.107000 
437.000000	 25.093000 
436.000000	 25.807000 
435.000000	 26.535000 
434.000000	 27.272000 
433.000000	 27.656000 
432.000000	 28.539000 
431.000000	 29.251000 
430.000000	 29.594000 
429.000000	 30.269000 
428.000000	 30.651000 
427.000000	 31.101000 
426.000000	 31.738000 
425.000000	 32.364000 
424.000000	 32.815000 
423.000000	 33.023000 
422.000000	 33.314000 
421.000000	 33.525000 
420.000000	 33.833000 
419.000000	 34.165000 
418.000000	 34.287000 
417.000000	 34.587000 
416.000000	 34.716000 
415.000000	 34.775000 
414.000000	 34.699000 
413.000000	 34.546000 
412.000000	 34.666000 
411.000000	 34.796000 
410.000000	 34.523000 
409.000000	 34.387000 
408.000000	 34.163000 
407.000000	 33.753000 
406.000000	 33.466000 
405.000000	 33.442000 
404.000000	 32.908000 
403.000000	 32.494000 
402.000000	 32.189000 
401.000000	 31.884000 
400.000000	 31.861000 
399.000000	 31.006000 
398.000000	 30.573000 
397.000000	 30.119000 
396.000000	 29.495000 
395.000000	 28.820000 
394.000000	 27.775000 
393.000000	 27.176000 
392.000000	 26.827000 
391.000000	 26.463000 
390.000000	 26.327000 
389.000000	 25.585000 
388.000000	 24.739000 
387.000000	 23.830000 
386.000000	 22.959000 
385.000000	 22.278000 
384.000000	 21.987000 
383.000000	 21.515000 
382.000000	 20.853000 
381.000000	 19.636000 
380.000000	 19.473000 
379.000000	 19.250000 
378.000000	 18.354000 
377.000000	 17.693000 
376.000000	 17.202000 
375.000000	 17.027000 
374.000000	 16.422000 
373.000000	 16.192000 
372.000000	 15.921000 
371.000000	 15.622000 
370.000000	 15.686000 
369.000000	 15.615000 
368.000000	 14.832000 
367.000000	 14.900000 
366.000000	 14.690000 
365.000000	 14.809000 
364.000000	 15.309000 
363.000000	 15.342000 
362.000000	 15.732000 
361.000000	 15.836000 
360.000000	 15.610000 
359.000000	 15.953000 
358.000000	 15.993000 
357.000000	 15.902000 
356.000000	 16.732000 
355.000000	 17.099000 
354.000000	 17.309000 
353.000000	 17.699000 
352.000000	 18.366000 
351.000000	 17.889000 
350.000000	 17.860000 
349.000000	 18.265000 
348.000000	 18.228000 
347.000000	 19.196000 
346.000000	 20.044000 
345.000000	 19.721000 
344.000000	 19.887000 
343.000000	 20.735000 
342.000000	 20.036000 
341.000000	 20.176000 
340.000000	 19.642000 
339.000000	 20.671000 
338.000000	 20.694000 
337.000000	 20.910000 
336.000000	 20.666000 
335.000000	 21.348000 
334.000000	 20.845000 
333.000000	 20.866000 
332.000000	 21.693000 
331.000000	 21.469000 
330.000000	 20.822000 
329.000000	 21.431000 
328.000000	 22.311000 
327.000000	 21.598000 
326.000000	 21.120000 
325.000000	 20.999000 
324.000000	 20.819000 
323.000000	 20.610000 
322.000000	 20.541000 
321.000000	 20.708000 
320.000000	 20.308000 
319.000000	 20.147000 
318.000000	 20.068000 
317.000000	 20.159000 
316.000000	 20.170000 
315.000000	 19.825000 
314.000000	 19.646000 
313.000000	 19.016000 
312.000000	 18.797000 
311.000000	 18.997000 
310.000000	 18.646000 
309.000000	 18.516000 
308.000000	 18.624000 
307.000000	 18.198000 
306.000000	 18.254000 
305.000000	 18.193000 
304.000000	 17.849000 
303.000000	 17.473000 
302.000000	 17.596000 
301.000000	 17.034000 
300.000000	 16.499000 
299.000000	 17.253000 
298.000000	 17.127000 
297.000000	 16.865000 
296.000000	 16.567000 
295.000000	 16.162000 
294.000000	 16.106000 
293.000000	 15.997000 
292.000000	 15.713000 
291.000000	 15.761000 
290.000000	 15.424000 
289.000000	 15.497000 
288.000000	 15.601000 
287.000000	 15.188000 
286.000000	 14.902000 
285.000000	 14.872000 
284.000000	 15.021000 
283.000000	 15.180000 
282.000000	 15.017000 
281.000000	 15.271000 
280.000000	 15.385000 
279.000000	 15.106000 
278.000000	 14.908000 
277.000000	 14.865000 
276.000000	 14.974000 
275.000000	 14.686000 
274.000000	 14.762000 
273.000000	 14.868000 
272.000000	 14.763000 
271.000000	 15.012000 
270.000000	 15.306000 
269.000000	 14.878000 
268.000000	 14.766000 
267.000000	 14.650000 
266.000000	 14.945000 
265.000000	 15.202000 
264.000000	 15.263000 
263.000000	 15.309000 
262.000000	 15.184000 
261.000000	 15.423000 
260.000000	 15.299000 
259.000000	 15.355000 
258.000000	 15.243000 
257.000000	 15.325000 
256.000000	 15.705000 
255.000000	 15.683000 
254.000000	 15.890000 
253.000000	 15.706000 
252.000000	 15.733000 
251.000000	 15.788000 
250.000000	 15.920000 
249.000000	 15.909000 
248.000000	 16.017000 
247.000000	 16.294000 
246.000000	 16.398000 
245.000000	 16.586000 
244.000000	 16.651000 
243.000000	 16.336000 
242.000000	 16.561000 
241.000000	 16.764000 
240.000000	 17.025000 
239.000000	 17.253000 
238.000000	 17.099000 
237.000000	 17.294000 
236.000000	 17.409000 
235.000000	 16.906000 
234.000000	 16.902000 
233.000000	 16.924000 
232.000000	 17.177000 
231.000000	 16.764000 
230.000000	 16.597000 
229.000000	 16.950000 
228.000000	 16.558000 
227.000000	 16.958000 
226.000000	 16.751000 
225.000000	 16.791000 
224.000000	 15.992000 
223.000000	 15.932000 
222.000000	 16.908000 
221.000000	 16.724000 
220.000000	 16.841000 
219.000000	 16.751000 
218.000000	 17.447000 
217.000000	 16.828000 
216.000000	 17.797000 
215.000000	 17.373000 
214.000000	 17.293000 
213.000000	 16.862000 
212.000000	 17.504000 
211.000000	 15.720000 
210.000000	 18.112000 
209.000000	 17.842000 
208.000000	 17.360000 
207.000000	 15.948000 
206.000000	 16.514000 
205.000000	 15.793000 
204.000000	 15.239000 
203.000000	 18.579000 
202.000000	 18.275000 
201.000000	 16.293000 
200.000000	 15.368000 
199.000000	 15.043000 
198.000000	 15.812000 
197.000000	 16.563000 
196.000000	 15.416000 
195.000000	 12.889000 
194.000000	 19.359000 
193.000000	 32.361000 
192.000000	 38.492000 
191.000000	 21.732000 
190.000000	 23.831000 

