PE UV                   SPECTRUM    ASCII       PEDS        1.60        
  -1
S19_04.SP
12/04/05
08:01:29.00
12/04/05
08:10:05.00


190.000000
1









4444

SCAN
1
1


0.0
1920.0
2.00
MANUAL



UV/VIS




































#HDR
-1
-1
#GR
NM
%R
0.00002384185791015625
0.0
1000.000000
1.000000
811
8
96.523000
1.272000
#DATA
1000.000000	5.462000  
999.000000	 5.495000  
998.000000	 5.535000  
997.000000	 6.067000  
996.000000	 6.137000  
995.000000	 6.201000  
994.000000	 6.208000  
993.000000	 6.757000  
992.000000	 6.629000  
991.000000	 7.181000  
990.000000	 7.432999  
989.000000	 7.899000  
988.000000	 8.500000  
987.000000	 8.680000  
986.000000	 9.042000  
985.000000	 8.985999  
984.000000	 8.934000  
983.000000	 9.390000  
982.000000	 10.009000 
981.000000	 10.383000 
980.000000	 10.758000 
979.000000	 11.098000 
978.000000	 11.467000 
977.000000	 11.919000 
976.000000	 11.919000 
975.000000	 12.309000 
974.000000	 12.604000 
973.000000	 13.108000 
972.000000	 13.683000 
971.000000	 14.257000 
970.000000	 14.766000 
969.000000	 15.149000 
968.000000	 15.598000 
967.000000	 15.528000 
966.000000	 15.887000 
965.000000	 16.586000 
964.000000	 17.165000 
963.000000	 17.487000 
962.000000	 18.284000 
961.000000	 18.606000 
960.000000	 18.617000 
959.000000	 19.391000 
958.000000	 19.698000 
957.000000	 20.123000 
956.000000	 20.598000 
955.000000	 21.096000 
954.000000	 21.879000 
953.000000	 22.261000 
952.000000	 22.835000 
951.000000	 23.290000 
950.000000	 23.741000 
949.000000	 24.072000 
948.000000	 24.664000 
947.000000	 25.320000 
946.000000	 25.777000 
945.000000	 26.448000 
944.000000	 26.950000 
943.000000	 27.713000 
942.000000	 28.326000 
941.000000	 28.589000 
940.000000	 29.113000 
939.000000	 29.847000 
938.000000	 30.338000 
937.000000	 30.902000 
936.000000	 31.521000 
935.000000	 32.059000 
934.000000	 32.665000 
933.000000	 33.157000 
932.000000	 33.897000 
931.000000	 34.438000 
930.000000	 34.993000 
929.000000	 35.543000 
928.000000	 36.182000 
927.000000	 36.800000 
926.000000	 37.358999 
925.000000	 38.037000 
924.000000	 38.620000 
923.000000	 38.899000 
922.000000	 39.640000 
921.000000	 40.374000 
920.000000	 40.942000 
919.000000	 41.412000 
918.000000	 42.228000 
917.000000	 42.841000 
916.000000	 43.324000 
915.000000	 43.900000 
914.000000	 44.391000 
913.000000	 45.136000 
912.000000	 45.912000 
911.000000	 46.775000 
910.000000	 47.654000 
909.000000	 47.901000 
908.000000	 48.453000 
907.000000	 48.934000 
906.000000	 49.748000 
905.000000	 50.509000 
904.000000	 51.300000 
903.000000	 51.536000 
902.000000	 51.983000 
901.000000	 52.756000 
900.000000	 53.264000 
899.000000	 53.855000 
898.000000	 54.606000 
897.000000	 55.087000 
896.000000	 55.710000 
895.000000	 56.354000 
894.000000	 56.825000 
893.000000	 57.265000 
892.000000	 57.975000 
891.000000	 58.801000 
890.000000	 59.544000 
889.000000	 59.854000 
888.000000	 60.172000 
887.000000	 61.034000 
886.000000	 61.673000 
885.000000	 62.322999 
884.000000	 62.696000 
883.000000	 63.414000 
882.000000	 63.798999 
881.000000	 64.397000 
880.000000	 65.841000 
879.000000	 65.916000 
878.000000	 65.970000 
877.000000	 66.828000 
876.000000	 67.569999 
875.000000	 67.825999 
874.000000	 68.816999 
873.000000	 69.516000 
872.000000	 69.959999 
871.000000	 70.902000 
870.000000	 70.789999 
869.000000	 71.331999 
868.000000	 71.393000 
867.000000	 72.260000 
866.000000	 72.890999 
865.000000	 73.381000 
864.000000	 74.256999 
863.000000	 74.667000 
862.000000	 74.991000 
861.000000	 75.307000 
860.000000	 75.886000 
859.000000	 76.291000 
858.000000	 77.141000 
857.000000	 77.825999 
856.000000	 78.369000 
855.000000	 78.541000 
854.000000	 79.194000 
853.000000	 79.791000 
852.000000	 79.902000 
851.000000	 80.633000 
850.000000	 80.781000 
849.000000	 81.318000 
848.000000	 82.248000 
847.000000	 82.289000 
846.000000	 83.083000 
845.000000	 83.263000 
844.000000	 83.441000 
843.000000	 84.147000 
842.000000	 84.836000 
841.000000	 85.590999 
840.000000	 85.508000 
839.000000	 85.665000 
838.000000	 86.149000 
837.000000	 86.382000 
836.000000	 86.894000 
835.000000	 86.896000 
834.000000	 87.519000 
833.000000	 88.033000 
832.000000	 88.080000 
831.000000	 89.023000 
830.000000	 88.965000 
829.000000	 89.545000 
828.000000	 89.319000 
827.000000	 90.176000 
826.000000	 90.417000 
825.000000	 90.980000 
824.000000	 90.503999 
823.000000	 90.471999 
822.000000	 91.125000 
821.000000	 91.617999 
820.000000	 91.864999 
819.000000	 92.232000 
818.000000	 92.420999 
817.000000	 93.003000 
816.000000	 93.359000 
815.000000	 93.148000 
814.000000	 93.205000 
813.000000	 93.553000 
812.000000	 93.496000 
811.000000	 93.708000 
810.000000	 93.967999 
809.000000	 93.950000 
808.000000	 94.146000 
807.000000	 94.593999 
806.000000	 95.161000 
805.000000	 95.443000 
804.000000	 95.377000 
803.000000	 95.291000 
802.000000	 95.122000 
801.000000	 95.276000 
800.000000	 95.543000 
799.000000	 96.167999 
798.000000	 96.155999 
797.000000	 95.848000 
796.000000	 95.938999 
795.000000	 95.765000 
794.000000	 95.968000 
793.000000	 96.069000 
792.000000	 95.984000 
791.000000	 96.015000 
790.000000	 96.277999 
789.000000	 96.370000 
788.000000	 96.523000 
787.000000	 96.260000 
786.000000	 95.791000 
785.000000	 96.120000 
784.000000	 96.444000 
783.000000	 96.336000 
782.000000	 96.216000 
781.000000	 96.509000 
780.000000	 96.380000 
779.000000	 96.024000 
778.000000	 96.104000 
777.000000	 95.972000 
776.000000	 96.031000 
775.000000	 95.959000 
774.000000	 95.721999 
773.000000	 95.377000 
772.000000	 95.517000 
771.000000	 95.205000 
770.000000	 95.116000 
769.000000	 94.916000 
768.000000	 94.779000 
767.000000	 94.553000 
766.000000	 94.148000 
765.000000	 93.691000 
764.000000	 93.613000 
763.000000	 93.551000 
762.000000	 93.198000 
761.000000	 92.877000 
760.000000	 92.630000 
759.000000	 92.601000 
758.000000	 91.942000 
757.000000	 91.727000 
756.000000	 91.404000 
755.000000	 91.226000 
754.000000	 90.954000 
753.000000	 90.551000 
752.000000	 89.998000 
751.000000	 89.932999 
750.000000	 89.431000 
749.000000	 88.975000 
748.000000	 88.322000 
747.000000	 87.924000 
746.000000	 87.829000 
745.000000	 87.289000 
744.000000	 86.884000 
743.000000	 86.646999 
742.000000	 85.804999 
741.000000	 85.169000 
740.000000	 84.789000 
739.000000	 84.192000 
738.000000	 83.877000 
737.000000	 83.327000 
736.000000	 82.488000 
735.000000	 82.098000 
734.000000	 81.455999 
733.000000	 80.928000 
732.000000	 80.286999 
731.000000	 79.683000 
730.000000	 79.000000 
729.000000	 78.403000 
728.000000	 77.526000 
727.000000	 76.896000 
726.000000	 76.279000 
725.000000	 75.715000 
724.000000	 74.989999 
723.000000	 74.306000 
722.000000	 73.530000 
721.000000	 72.779000 
720.000000	 71.955000 
719.000000	 71.229000 
718.000000	 70.381000 
717.000000	 69.584999 
716.000000	 68.782000 
715.000000	 68.020000 
714.000000	 67.150000 
713.000000	 66.325999 
712.000000	 65.426000 
711.000000	 64.542000 
710.000000	 63.634000 
709.000000	 62.844000 
708.000000	 62.039000 
707.000000	 61.087000 
706.000000	 60.133000 
705.000000	 59.014000 
704.000000	 57.992999 
703.000000	 56.999000 
702.000000	 56.010000 
701.000000	 54.823000 
700.000000	 53.980000 
699.000000	 53.042000 
698.000000	 52.023000 
697.000000	 50.814000 
696.000000	 49.944000 
695.000000	 48.596000 
694.000000	 47.647000 
693.000000	 46.683000 
692.000000	 45.647000 
691.000000	 44.572000 
690.000000	 43.486999 
689.000000	 42.362000 
688.000000	 41.296000 
687.000000	 40.182000 
686.000000	 39.081000 
685.000000	 38.022000 
684.000000	 36.879000 
683.000000	 35.919000 
682.000000	 34.812000 
681.000000	 33.708000 
680.000000	 32.641000 
679.000000	 31.606000 
678.000000	 30.425000 
677.000000	 29.319000 
676.000000	 28.254000 
675.000000	 27.153000 
674.000000	 26.110000 
673.000000	 25.160000 
672.000000	 24.115000 
671.000000	 23.060000 
670.000000	 22.191000 
669.000000	 21.160000 
668.000000	 19.891000 
667.000000	 19.057000 
666.000000	 18.091000 
665.000000	 17.106000 
664.000000	 16.299000 
663.000000	 15.082000 
662.000000	 14.281000 
661.000000	 13.739000 
660.000000	 12.730000 
659.000000	 11.878000 
658.000000	 11.095000 
657.000000	 10.180000 
656.000000	 9.402000  
655.000000	 8.688000  
654.000000	 8.022000  
653.000000	 7.387000  
652.000000	 6.915000  
651.000000	 6.398000  
650.000000	 5.652000  
649.000000	 5.075000  
648.000000	 4.465000  
647.000000	 3.926000  
646.000000	 3.464000  
645.000000	 3.157999  
644.000000	 2.961000  
643.000000	 2.517000  
642.000000	 2.173000  
641.000000	 1.908000  
640.000000	 1.783000  
639.000000	 1.626000  
638.000000	 1.394000  
637.000000	 1.272000  
636.000000	 1.312000  
635.000000	 1.380000  
634.000000	 1.477000  
633.000000	 1.428000  
632.000000	 1.600000  
631.000000	 1.742000  
630.000000	 1.861000  
629.000000	 2.060000  
628.000000	 2.333000  
627.000000	 2.748000  
626.000000	 3.203000  
625.000000	 3.619000  
624.000000	 4.120000  
623.000000	 4.479000  
622.000000	 4.948000  
621.000000	 5.538000  
620.000000	 6.112000  
619.000000	 6.839000  
618.000000	 7.527000  
617.000000	 8.205000  
616.000000	 8.963000  
615.000000	 9.705000  
614.000000	 10.458000 
613.000000	 11.245000 
612.000000	 12.162000 
611.000000	 13.010000 
610.000000	 13.965000 
609.000000	 14.985000 
608.000000	 15.823000 
607.000000	 16.855000 
606.000000	 17.830000 
605.000000	 18.705000 
604.000000	 19.761000 
603.000000	 20.815000 
602.000000	 21.986000 
601.000000	 22.994000 
600.000000	 23.993000 
599.000000	 25.134000 
598.000000	 26.189000 
597.000000	 27.303000 
596.000000	 28.325000 
595.000000	 29.412000 
594.000000	 30.577000 
593.000000	 31.712000 
592.000000	 32.777000 
591.000000	 33.849000 
590.000000	 34.982000 
589.000000	 36.170000 
588.000000	 37.281000 
587.000000	 38.291000 
586.000000	 39.391000 
585.000000	 40.431000 
584.000000	 41.575000 
583.000000	 42.713000 
582.000000	 43.674000 
581.000000	 44.713000 
580.000000	 45.756000 
579.000000	 46.680000 
578.000000	 47.682000 
577.000000	 48.624000 
576.000000	 49.513000 
575.000000	 50.519000 
574.000000	 51.510000 
573.000000	 52.375000 
572.000000	 53.328000 
571.000000	 54.096000 
570.000000	 54.881000 
569.000000	 55.759000 
568.000000	 56.494000 
567.000000	 57.212000 
566.000000	 58.007000 
565.000000	 58.739000 
564.000000	 59.429000 
563.000000	 60.077000 
562.000000	 60.781000 
561.000000	 61.351000 
560.000000	 61.837000 
559.000000	 62.421000 
558.000000	 62.977000 
557.000000	 63.464000 
556.000000	 63.900000 
555.000000	 64.346000 
554.000000	 64.714000 
553.000000	 65.133000 
552.000000	 65.456000 
551.000000	 65.670000 
550.000000	 65.917000 
549.000000	 66.198000 
548.000000	 66.479000 
547.000000	 66.721000 
546.000000	 66.879000 
545.000000	 67.103000 
544.000000	 67.242999 
543.000000	 67.257000 
542.000000	 67.265000 
541.000000	 67.262000 
540.000000	 67.206000 
539.000000	 67.174000 
538.000000	 67.001000 
537.000000	 66.919000 
536.000000	 66.654000 
535.000000	 66.485000 
534.000000	 66.188999 
533.000000	 65.900000 
532.000000	 65.586999 
531.000000	 65.259000 
530.000000	 64.810000 
529.000000	 64.416000 
528.000000	 63.961000 
527.000000	 63.492000 
526.000000	 63.017000 
525.000000	 62.292000 
524.000000	 61.950000 
523.000000	 61.220000 
522.000000	 60.507000 
521.000000	 59.828000 
520.000000	 59.131000 
519.000000	 58.496000 
518.000000	 57.576000 
517.000000	 56.737000 
516.000000	 55.870000 
515.000000	 54.958000 
514.000000	 54.088000 
513.000000	 53.274999 
512.000000	 52.479000 
511.000000	 51.450000 
510.000000	 50.432999 
509.000000	 49.261000 
508.000000	 48.120000 
507.000000	 47.122000 
506.000000	 46.023000 
505.000000	 44.851000 
504.000000	 43.870000 
503.000000	 42.781000 
502.000000	 41.664000 
501.000000	 40.466000 
500.000000	 39.333000 
499.000000	 38.115000 
498.000000	 36.839000 
497.000000	 35.609000 
496.000000	 34.406000 
495.000000	 33.341000 
494.000000	 32.166000 
493.000000	 30.963000 
492.000000	 29.712000 
491.000000	 28.470000 
490.000000	 27.363000 
489.000000	 26.298000 
488.000000	 25.116000 
487.000000	 24.016000 
486.000000	 23.086000 
485.000000	 22.040000 
484.000000	 21.018000 
483.000000	 20.093000 
482.000000	 19.058000 
481.000000	 17.970000 
480.000000	 17.263000 
479.000000	 16.449000 
478.000000	 15.754000 
477.000000	 15.238000 
476.000000	 14.199000 
475.000000	 13.684000 
474.000000	 13.133000 
473.000000	 12.540000 
472.000000	 12.082000 
471.000000	 11.791000 
470.000000	 11.392000 
469.000000	 11.103000 
468.000000	 10.894000 
467.000000	 10.796000 
466.000000	 10.699000 
465.000000	 10.499000 
464.000000	 10.423000 
463.000000	 10.414000 
462.000000	 10.599000 
461.000000	 10.788000 
460.000000	 10.991000 
459.000000	 11.284000 
458.000000	 11.569000 
457.000000	 11.949000 
456.000000	 12.305000 
455.000000	 12.735000 
454.000000	 13.232000 
453.000000	 13.735000 
452.000000	 14.220000 
451.000000	 14.912000 
450.000000	 15.491000 
449.000000	 16.107000 
448.000000	 16.849000 
447.000000	 17.440000 
446.000000	 18.055000 
445.000000	 18.691000 
444.000000	 19.525000 
443.000000	 20.304000 
442.000000	 21.215000 
441.000000	 21.874000 
440.000000	 22.621000 
439.000000	 23.276000 
438.000000	 23.863000 
437.000000	 24.707000 
436.000000	 25.333000 
435.000000	 25.803000 
434.000000	 26.848000 
433.000000	 27.679000 
432.000000	 28.055000 
431.000000	 28.720000 
430.000000	 29.511000 
429.000000	 30.010000 
428.000000	 30.461000 
427.000000	 30.702000 
426.000000	 31.536000 
425.000000	 31.991000 
424.000000	 32.439000 
423.000000	 32.809000 
422.000000	 33.254000 
421.000000	 33.230000 
420.000000	 33.517000 
419.000000	 33.871000 
418.000000	 33.925000 
417.000000	 34.120000 
416.000000	 34.458000 
415.000000	 34.435000 
414.000000	 34.652000 
413.000000	 34.702000 
412.000000	 34.610000 
411.000000	 34.399000 
410.000000	 34.194000 
409.000000	 34.339000 
408.000000	 34.433000 
407.000000	 34.397000 
406.000000	 33.970000 
405.000000	 33.678000 
404.000000	 33.141000 
403.000000	 32.776000 
402.000000	 32.345000 
401.000000	 32.009000 
400.000000	 31.843000 
399.000000	 31.265000 
398.000000	 30.897000 
397.000000	 30.268000 
396.000000	 29.992000 
395.000000	 29.191000 
394.000000	 28.426000 
393.000000	 27.815000 
392.000000	 27.180000 
391.000000	 26.253000 
390.000000	 26.170000 
389.000000	 25.675000 
388.000000	 25.351000 
387.000000	 24.309000 
386.000000	 23.451000 
385.000000	 22.800000 
384.000000	 22.482000 
383.000000	 21.571000 
382.000000	 21.474000 
381.000000	 21.242000 
380.000000	 20.092000 
379.000000	 19.125000 
378.000000	 18.646000 
377.000000	 17.651000 
376.000000	 17.237000 
375.000000	 16.427000 
374.000000	 16.464000 
373.000000	 16.327000 
372.000000	 16.241000 
371.000000	 16.177000 
370.000000	 15.845000 
369.000000	 15.462000 
368.000000	 14.987000 
367.000000	 14.840000 
366.000000	 14.820000 
365.000000	 15.042000 
364.000000	 15.599000 
363.000000	 15.794000 
362.000000	 15.789000 
361.000000	 15.801000 
360.000000	 16.056000 
359.000000	 15.984000 
358.000000	 16.372000 
357.000000	 16.778000 
356.000000	 16.715000 
355.000000	 17.752000 
354.000000	 18.023000 
353.000000	 17.786000 
352.000000	 18.430000 
351.000000	 18.971000 
350.000000	 18.986000 
349.000000	 19.089000 
348.000000	 19.007000 
347.000000	 19.367000 
346.000000	 19.820000 
345.000000	 19.683000 
344.000000	 20.480000 
343.000000	 20.595000 
342.000000	 20.542000 
341.000000	 20.012000 
340.000000	 20.192000 
339.000000	 21.115000 
338.000000	 21.597000 
337.000000	 21.553000 
336.000000	 21.697000 
335.000000	 21.820000 
334.000000	 22.196000 
333.000000	 21.219000 
332.000000	 21.396000 
331.000000	 22.015000 
330.000000	 22.287000 
329.000000	 22.262000 
328.000000	 22.109000 
327.000000	 21.478000 
326.000000	 21.235000 
325.000000	 21.163000 
324.000000	 20.962000 
323.000000	 20.716000 
322.000000	 20.566000 
321.000000	 20.428000 
320.000000	 20.318000 
319.000000	 20.250000 
318.000000	 20.448000 
317.000000	 20.374000 
316.000000	 19.777000 
315.000000	 19.884000 
314.000000	 19.649000 
313.000000	 19.433000 
312.000000	 19.261000 
311.000000	 19.087000 
310.000000	 18.842000 
309.000000	 18.361000 
308.000000	 18.322000 
307.000000	 18.654000 
306.000000	 18.509000 
305.000000	 18.110000 
304.000000	 17.832000 
303.000000	 17.636000 
302.000000	 17.463000 
301.000000	 17.030000 
300.000000	 17.172000 
299.000000	 17.051000 
298.000000	 17.092000 
297.000000	 17.037000 
296.000000	 16.857000 
295.000000	 16.158000 
294.000000	 15.691000 
293.000000	 15.610000 
292.000000	 15.784000 
291.000000	 15.594000 
290.000000	 15.566000 
289.000000	 15.507000 
288.000000	 15.334000 
287.000000	 15.183000 
286.000000	 15.045000 
285.000000	 15.029000 
284.000000	 14.825000 
283.000000	 14.916000 
282.000000	 15.149000 
281.000000	 15.283000 
280.000000	 15.412000 
279.000000	 15.465000 
278.000000	 14.922000 
277.000000	 14.627000 
276.000000	 14.895000 
275.000000	 15.129000 
274.000000	 15.228000 
273.000000	 15.325000 
272.000000	 15.355000 
271.000000	 14.897000 
270.000000	 14.937000 
269.000000	 14.814000 
268.000000	 14.919000 
267.000000	 14.940000 
266.000000	 14.959000 
265.000000	 15.286000 
264.000000	 14.864000 
263.000000	 15.144000 
262.000000	 15.412000 
261.000000	 15.292000 
260.000000	 15.142000 
259.000000	 15.326000 
258.000000	 15.501000 
257.000000	 15.810000 
256.000000	 16.060000 
255.000000	 15.939000 
254.000000	 16.056000 
253.000000	 15.845000 
252.000000	 15.903000 
251.000000	 15.903000 
250.000000	 16.085000 
249.000000	 15.995000 
248.000000	 16.240000 
247.000000	 16.463000 
246.000000	 16.453000 
245.000000	 16.513000 
244.000000	 16.657000 
243.000000	 16.914000 
242.000000	 16.742000 
241.000000	 16.719000 
240.000000	 16.803000 
239.000000	 17.141000 
238.000000	 17.409000 
237.000000	 17.408000 
236.000000	 17.592000 
235.000000	 17.323000 
234.000000	 17.307000 
233.000000	 17.022000 
232.000000	 16.804000 
231.000000	 17.079000 
230.000000	 17.001000 
229.000000	 16.739000 
228.000000	 16.331000 
227.000000	 16.680000 
226.000000	 16.814000 
225.000000	 16.216000 
224.000000	 16.693000 
223.000000	 16.832000 
222.000000	 16.835000 
221.000000	 16.658000 
220.000000	 18.176000 
219.000000	 17.307000 
218.000000	 17.874000 
217.000000	 16.898000 
216.000000	 16.389000 
215.000000	 17.152000 
214.000000	 16.462000 
213.000000	 17.952000 
212.000000	 16.583000 
211.000000	 17.479000 
210.000000	 18.918000 
209.000000	 18.315000 
208.000000	 20.273000 
207.000000	 18.872000 
206.000000	 19.023000 
205.000000	 17.953000 
204.000000	 19.980000 
203.000000	 21.662000 
202.000000	 20.232000 
201.000000	 18.862000 
200.000000	 21.596000 
199.000000	 18.533000 
198.000000	 20.365000 
197.000000	 16.754000 
196.000000	 14.504000 
195.000000	 25.904000 
194.000000	 31.362000 
193.000000	 25.780000 
192.000000	 44.808000 
191.000000	 54.807000 
190.000000	 52.605000 

