PE UV                   SPECTRUM    ASCII       PEDS        1.60        
  -1
S19_01.SP
12/04/05
07:55:49.00
12/04/05
08:10:06.00


190.000000
1









4444

SCAN
1
1


0.0
1920.0
2.00
MANUAL



UV/VIS




































#HDR
-1
-1
#GR
NM
%R
0.00002384185791015625
0.0
1000.000000
1.000000
811
8
97.611000
1.235000
#DATA
1000.000000	5.212000  
999.000000	 5.537000  
998.000000	 5.661000  
997.000000	 5.859000  
996.000000	 5.999000  
995.000000	 6.275000  
994.000000	 6.274000  
993.000000	 6.635000  
992.000000	 6.927000  
991.000000	 7.038000  
990.000000	 7.432999  
989.000000	 8.012000  
988.000000	 8.110000  
987.000000	 8.795999  
986.000000	 9.098000  
985.000000	 9.105000  
984.000000	 9.472999  
983.000000	 9.597999  
982.000000	 9.734000  
981.000000	 10.216000 
980.000000	 10.782000 
979.000000	 11.287000 
978.000000	 11.904000 
977.000000	 12.145000 
976.000000	 12.063000 
975.000000	 12.396000 
974.000000	 12.785000 
973.000000	 13.444000 
972.000000	 13.903000 
971.000000	 14.414000 
970.000000	 14.836000 
969.000000	 15.048000 
968.000000	 15.443000 
967.000000	 15.703000 
966.000000	 16.328000 
965.000000	 16.714000 
964.000000	 17.271000 
963.000000	 17.607000 
962.000000	 18.299000 
961.000000	 18.889000 
960.000000	 19.165000 
959.000000	 19.661000 
958.000000	 20.204000 
957.000000	 20.558000 
956.000000	 21.089000 
955.000000	 21.624000 
954.000000	 22.040000 
953.000000	 22.752000 
952.000000	 23.093000 
951.000000	 23.680000 
950.000000	 24.145000 
949.000000	 24.561000 
948.000000	 25.192000 
947.000000	 25.634000 
946.000000	 26.311000 
945.000000	 26.919000 
944.000000	 27.436000 
943.000000	 27.783000 
942.000000	 28.444000 
941.000000	 28.969000 
940.000000	 29.495000 
939.000000	 30.185000 
938.000000	 30.852000 
937.000000	 31.464000 
936.000000	 31.952000 
935.000000	 32.376000 
934.000000	 33.034000 
933.000000	 33.755000 
932.000000	 34.354000 
931.000000	 34.790000 
930.000000	 35.390000 
929.000000	 35.985000 
928.000000	 36.573000 
927.000000	 37.112000 
926.000000	 37.751000 
925.000000	 38.371000 
924.000000	 38.757000 
923.000000	 39.402000 
922.000000	 40.062000 
921.000000	 40.746000 
920.000000	 41.160999 
919.000000	 41.871000 
918.000000	 42.496000 
917.000000	 43.082000 
916.000000	 43.820000 
915.000000	 44.377000 
914.000000	 45.039000 
913.000000	 45.664000 
912.000000	 46.207000 
911.000000	 47.119000 
910.000000	 47.694000 
909.000000	 47.776000 
908.000000	 48.465000 
907.000000	 49.068000 
906.000000	 50.172000 
905.000000	 50.452000 
904.000000	 50.947000 
903.000000	 51.820000 
902.000000	 52.276000 
901.000000	 52.898999 
900.000000	 53.769000 
899.000000	 54.447000 
898.000000	 55.035999 
897.000000	 55.570000 
896.000000	 56.094999 
895.000000	 56.425000 
894.000000	 56.989999 
893.000000	 57.755999 
892.000000	 58.542000 
891.000000	 58.964000 
890.000000	 59.723000 
889.000000	 60.651999 
888.000000	 61.121000 
887.000000	 61.371000 
886.000000	 62.000000 
885.000000	 62.688000 
884.000000	 63.032999 
883.000000	 63.855000 
882.000000	 64.510000 
881.000000	 64.982000 
880.000000	 65.255000 
879.000000	 66.318000 
878.000000	 66.640000 
877.000000	 67.074999 
876.000000	 67.462000 
875.000000	 68.389000 
874.000000	 69.319000 
873.000000	 69.834000 
872.000000	 70.496000 
871.000000	 71.619000 
870.000000	 71.313999 
869.000000	 71.608999 
868.000000	 72.209999 
867.000000	 72.796000 
866.000000	 73.673000 
865.000000	 74.256000 
864.000000	 75.353000 
863.000000	 75.212999 
862.000000	 76.031000 
861.000000	 76.327000 
860.000000	 76.530000 
859.000000	 77.161999 
858.000000	 77.600000 
857.000000	 78.387000 
856.000000	 78.232000 
855.000000	 78.942000 
854.000000	 79.788000 
853.000000	 80.077000 
852.000000	 80.364000 
851.000000	 80.967000 
850.000000	 81.796000 
849.000000	 82.262000 
848.000000	 82.563000 
847.000000	 82.754000 
846.000000	 83.024000 
845.000000	 83.426000 
844.000000	 84.239000 
843.000000	 84.617000 
842.000000	 85.098000 
841.000000	 85.189000 
840.000000	 85.694000 
839.000000	 85.875000 
838.000000	 86.092000 
837.000000	 87.277000 
836.000000	 87.941999 
835.000000	 87.986000 
834.000000	 87.928000 
833.000000	 88.393999 
832.000000	 87.814000 
831.000000	 88.937000 
830.000000	 89.133000 
829.000000	 89.786000 
828.000000	 89.769000 
827.000000	 89.759000 
826.000000	 90.375000 
825.000000	 90.712000 
824.000000	 91.366000 
823.000000	 91.670000 
822.000000	 91.789000 
821.000000	 91.515000 
820.000000	 92.310000 
819.000000	 92.883000 
818.000000	 92.793000 
817.000000	 93.327000 
816.000000	 93.851000 
815.000000	 93.720000 
814.000000	 93.908999 
813.000000	 94.279000 
812.000000	 94.403000 
811.000000	 94.713000 
810.000000	 94.184000 
809.000000	 94.453000 
808.000000	 94.872999 
807.000000	 95.304999 
806.000000	 95.479000 
805.000000	 95.943000 
804.000000	 96.566000 
803.000000	 95.887999 
802.000000	 95.827000 
801.000000	 95.982000 
800.000000	 96.422000 
799.000000	 96.233999 
798.000000	 96.253000 
797.000000	 96.505000 
796.000000	 96.399000 
795.000000	 96.450000 
794.000000	 96.661000 
793.000000	 97.069000 
792.000000	 97.158999 
791.000000	 97.611000 
790.000000	 97.069000 
789.000000	 96.775000 
788.000000	 96.392000 
787.000000	 96.949000 
786.000000	 97.003000 
785.000000	 96.370000 
784.000000	 96.468000 
783.000000	 96.895000 
782.000000	 96.989000 
781.000000	 97.080999 
780.000000	 96.801999 
779.000000	 96.494000 
778.000000	 96.445000 
777.000000	 96.307000 
776.000000	 96.276000 
775.000000	 96.007000 
774.000000	 95.717000 
773.000000	 95.804999 
772.000000	 95.603000 
771.000000	 95.348999 
770.000000	 95.410000 
769.000000	 95.226000 
768.000000	 94.901000 
767.000000	 94.860999 
766.000000	 94.628000 
765.000000	 94.294000 
764.000000	 93.916000 
763.000000	 93.932999 
762.000000	 93.462000 
761.000000	 93.226000 
760.000000	 93.303000 
759.000000	 93.038000 
758.000000	 92.747999 
757.000000	 92.477000 
756.000000	 92.168000 
755.000000	 91.607000 
754.000000	 91.011000 
753.000000	 90.654000 
752.000000	 90.217000 
751.000000	 89.669000 
750.000000	 89.474000 
749.000000	 89.057000 
748.000000	 88.718000 
747.000000	 88.330000 
746.000000	 88.078000 
745.000000	 87.483999 
744.000000	 86.921000 
743.000000	 86.732000 
742.000000	 86.312999 
741.000000	 85.456000 
740.000000	 84.945000 
739.000000	 84.342000 
738.000000	 83.889000 
737.000000	 83.285000 
736.000000	 82.593000 
735.000000	 82.193000 
734.000000	 81.576000 
733.000000	 80.971000 
732.000000	 80.331000 
731.000000	 79.557999 
730.000000	 78.881000 
729.000000	 78.283999 
728.000000	 77.566999 
727.000000	 76.936000 
726.000000	 76.370000 
725.000000	 75.614000 
724.000000	 74.696000 
723.000000	 73.979000 
722.000000	 73.434999 
721.000000	 72.783000 
720.000000	 71.878000 
719.000000	 71.110000 
718.000000	 70.271000 
717.000000	 69.342000 
716.000000	 68.425000 
715.000000	 67.738000 
714.000000	 66.891000 
713.000000	 65.942000 
712.000000	 65.158000 
711.000000	 64.247000 
710.000000	 63.041000 
709.000000	 62.220000 
708.000000	 61.589000 
707.000000	 60.502999 
706.000000	 59.544000 
705.000000	 58.623000 
704.000000	 57.685000 
703.000000	 56.670000 
702.000000	 55.484000 
701.000000	 54.600000 
700.000000	 53.819000 
699.000000	 52.565000 
698.000000	 51.566999 
697.000000	 50.700999 
696.000000	 49.462000 
695.000000	 48.356000 
694.000000	 47.523000 
693.000000	 46.292000 
692.000000	 45.284000 
691.000000	 44.215000 
690.000000	 43.129000 
689.000000	 42.095000 
688.000000	 40.992000 
687.000000	 39.977000 
686.000000	 38.976000 
685.000000	 37.890000 
684.000000	 36.757000 
683.000000	 35.824000 
682.000000	 34.632000 
681.000000	 33.557000 
680.000000	 32.656000 
679.000000	 31.495000 
678.000000	 30.298000 
677.000000	 29.133000 
676.000000	 28.152000 
675.000000	 26.982000 
674.000000	 25.936000 
673.000000	 24.876000 
672.000000	 23.886000 
671.000000	 22.780000 
670.000000	 21.729000 
669.000000	 20.867000 
668.000000	 19.878000 
667.000000	 18.899000 
666.000000	 17.795000 
665.000000	 16.826000 
664.000000	 15.939000 
663.000000	 15.026000 
662.000000	 14.161000 
661.000000	 13.456000 
660.000000	 12.483000 
659.000000	 11.594000 
658.000000	 10.760000 
657.000000	 9.886000  
656.000000	 9.128000  
655.000000	 8.571000  
654.000000	 7.854000  
653.000000	 7.016999  
652.000000	 6.694999  
651.000000	 6.069000  
650.000000	 5.445000  
649.000000	 4.859000  
648.000000	 4.460000  
647.000000	 3.907999  
646.000000	 3.450000  
645.000000	 3.006000  
644.000000	 2.633000  
643.000000	 2.527000  
642.000000	 2.354000  
641.000000	 2.114000  
640.000000	 1.931000  
639.000000	 1.523000  
638.000000	 1.235000  
637.000000	 1.255000  
636.000000	 1.435000  
635.000000	 1.408000  
634.000000	 1.460000  
633.000000	 1.612000  
632.000000	 1.719000  
631.000000	 1.795000  
630.000000	 2.014000  
629.000000	 2.265000  
628.000000	 2.519000  
627.000000	 2.842000  
626.000000	 3.353000  
625.000000	 3.862000  
624.000000	 4.286000  
623.000000	 4.800000  
622.000000	 5.244000  
621.000000	 5.718000  
620.000000	 6.287000  
619.000000	 7.013999  
618.000000	 7.796000  
617.000000	 8.551000  
616.000000	 9.234000  
615.000000	 10.115000 
614.000000	 10.807000 
613.000000	 11.591000 
612.000000	 12.544000 
611.000000	 13.423000 
610.000000	 14.273000 
609.000000	 15.203000 
608.000000	 16.172000 
607.000000	 17.213000 
606.000000	 18.225000 
605.000000	 19.277000 
604.000000	 20.234000 
603.000000	 21.193000 
602.000000	 22.225000 
601.000000	 23.292000 
600.000000	 24.381000 
599.000000	 25.569000 
598.000000	 26.716000 
597.000000	 27.719000 
596.000000	 28.802000 
595.000000	 29.994000 
594.000000	 31.091000 
593.000000	 32.250000 
592.000000	 33.373000 
591.000000	 34.452000 
590.000000	 35.545000 
589.000000	 36.649000 
588.000000	 37.696000 
587.000000	 38.746000 
586.000000	 39.891000 
585.000000	 41.084000 
584.000000	 42.100000 
583.000000	 43.166000 
582.000000	 44.252000 
581.000000	 45.232000 
580.000000	 46.374000 
579.000000	 47.315000 
578.000000	 48.265000 
577.000000	 49.248000 
576.000000	 50.145000 
575.000000	 51.074000 
574.000000	 52.087000 
573.000000	 52.940000 
572.000000	 53.848000 
571.000000	 54.734000 
570.000000	 55.584999 
569.000000	 56.324000 
568.000000	 57.045000 
567.000000	 57.680000 
566.000000	 58.523000 
565.000000	 59.266000 
564.000000	 59.941000 
563.000000	 60.648000 
562.000000	 61.227000 
561.000000	 61.748000 
560.000000	 62.390000 
559.000000	 63.027000 
558.000000	 63.456999 
557.000000	 64.027999 
556.000000	 64.621000 
555.000000	 64.982000 
554.000000	 65.295000 
553.000000	 65.681000 
552.000000	 66.104000 
551.000000	 66.376000 
550.000000	 66.645000 
549.000000	 66.943000 
548.000000	 67.227999 
547.000000	 67.414000 
546.000000	 67.565000 
545.000000	 67.667999 
544.000000	 67.782000 
543.000000	 67.820000 
542.000000	 67.825000 
541.000000	 67.845999 
540.000000	 67.834000 
539.000000	 67.788000 
538.000000	 67.623000 
537.000000	 67.510000 
536.000000	 67.435999 
535.000000	 67.054999 
534.000000	 66.805000 
533.000000	 66.483000 
532.000000	 66.239000 
531.000000	 65.903000 
530.000000	 65.393999 
529.000000	 65.195000 
528.000000	 64.834999 
527.000000	 64.224000 
526.000000	 63.566000 
525.000000	 62.894000 
524.000000	 62.480999 
523.000000	 61.700000 
522.000000	 61.084000 
521.000000	 60.434000 
520.000000	 59.635000 
519.000000	 58.911000 
518.000000	 58.137000 
517.000000	 57.291000 
516.000000	 56.350000 
515.000000	 55.603000 
514.000000	 54.713000 
513.000000	 53.734000 
512.000000	 52.626000 
511.000000	 51.751000 
510.000000	 50.718000 
509.000000	 49.621000 
508.000000	 48.546000 
507.000000	 47.538000 
506.000000	 46.410000 
505.000000	 45.258000 
504.000000	 44.198000 
503.000000	 43.018000 
502.000000	 41.851000 
501.000000	 40.664000 
500.000000	 39.418000 
499.000000	 38.167000 
498.000000	 36.973000 
497.000000	 35.767000 
496.000000	 34.650000 
495.000000	 33.398000 
494.000000	 32.223000 
493.000000	 31.065000 
492.000000	 29.882000 
491.000000	 28.803000 
490.000000	 27.502000 
489.000000	 26.262000 
488.000000	 25.157000 
487.000000	 24.157000 
486.000000	 23.060000 
485.000000	 22.097000 
484.000000	 21.144000 
483.000000	 20.169000 
482.000000	 19.106000 
481.000000	 18.116000 
480.000000	 17.342000 
479.000000	 16.390000 
478.000000	 15.770000 
477.000000	 15.107000 
476.000000	 14.351000 
475.000000	 13.783000 
474.000000	 13.131000 
473.000000	 12.693000 
472.000000	 12.125000 
471.000000	 11.671000 
470.000000	 11.362000 
469.000000	 11.122000 
468.000000	 10.826000 
467.000000	 10.736000 
466.000000	 10.568000 
465.000000	 10.458000 
464.000000	 10.388000 
463.000000	 10.452000 
462.000000	 10.698000 
461.000000	 10.942000 
460.000000	 11.239000 
459.000000	 11.656000 
458.000000	 11.921000 
457.000000	 12.146000 
456.000000	 12.548000 
455.000000	 13.003000 
454.000000	 13.347000 
453.000000	 13.892000 
452.000000	 14.535000 
451.000000	 15.152000 
450.000000	 15.861000 
449.000000	 16.480000 
448.000000	 17.185000 
447.000000	 17.696000 
446.000000	 18.506000 
445.000000	 19.231000 
444.000000	 19.749000 
443.000000	 20.704000 
442.000000	 21.544000 
441.000000	 22.232000 
440.000000	 23.195000 
439.000000	 23.577000 
438.000000	 24.258000 
437.000000	 25.005000 
436.000000	 25.922000 
435.000000	 26.610000 
434.000000	 27.310000 
433.000000	 28.037000 
432.000000	 28.445000 
431.000000	 29.276000 
430.000000	 29.805000 
429.000000	 30.179000 
428.000000	 30.785000 
427.000000	 31.306000 
426.000000	 31.879000 
425.000000	 32.659000 
424.000000	 32.752000 
423.000000	 32.927000 
422.000000	 33.674000 
421.000000	 33.991000 
420.000000	 33.977000 
419.000000	 34.282000 
418.000000	 34.538000 
417.000000	 34.870000 
416.000000	 34.703000 
415.000000	 35.066000 
414.000000	 35.121000 
413.000000	 35.140000 
412.000000	 35.126000 
411.000000	 35.091000 
410.000000	 34.826000 
409.000000	 34.589000 
408.000000	 34.986000 
407.000000	 34.686000 
406.000000	 34.165000 
405.000000	 34.071000 
404.000000	 33.432000 
403.000000	 32.851000 
402.000000	 32.579000 
401.000000	 32.257000 
400.000000	 31.941000 
399.000000	 31.596000 
398.000000	 31.173000 
397.000000	 30.662000 
396.000000	 29.751000 
395.000000	 29.233000 
394.000000	 28.790000 
393.000000	 28.086000 
392.000000	 27.263000 
391.000000	 26.771000 
390.000000	 26.518000 
389.000000	 25.546000 
388.000000	 24.682000 
387.000000	 24.570000 
386.000000	 23.854000 
385.000000	 22.941000 
384.000000	 22.348000 
383.000000	 22.073000 
382.000000	 21.473000 
381.000000	 20.532000 
380.000000	 20.751000 
379.000000	 19.327000 
378.000000	 18.670000 
377.000000	 18.441000 
376.000000	 18.111000 
375.000000	 17.194000 
374.000000	 16.898000 
373.000000	 16.923000 
372.000000	 16.184000 
371.000000	 15.851000 
370.000000	 15.844000 
369.000000	 15.661000 
368.000000	 15.227000 
367.000000	 15.116000 
366.000000	 15.121000 
365.000000	 15.222000 
364.000000	 15.552000 
363.000000	 15.921000 
362.000000	 15.973000 
361.000000	 15.829000 
360.000000	 16.029000 
359.000000	 15.717000 
358.000000	 16.231000 
357.000000	 17.076000 
356.000000	 17.050000 
355.000000	 17.290000 
354.000000	 17.664000 
353.000000	 18.130000 
352.000000	 18.244000 
351.000000	 18.437000 
350.000000	 19.095000 
349.000000	 19.614000 
348.000000	 19.118000 
347.000000	 19.074000 
346.000000	 19.936000 
345.000000	 20.491000 
344.000000	 20.143000 
343.000000	 20.722000 
342.000000	 20.891000 
341.000000	 20.783000 
340.000000	 20.478000 
339.000000	 20.881000 
338.000000	 21.472000 
337.000000	 22.195000 
336.000000	 22.066000 
335.000000	 21.777000 
334.000000	 21.922000 
333.000000	 21.269000 
332.000000	 20.489000 
331.000000	 20.828000 
330.000000	 21.329000 
329.000000	 22.251000 
328.000000	 22.541000 
327.000000	 21.439000 
326.000000	 21.629000 
325.000000	 21.714000 
324.000000	 21.399000 
323.000000	 21.367000 
322.000000	 21.148000 
321.000000	 21.015000 
320.000000	 20.902000 
319.000000	 20.710000 
318.000000	 20.466000 
317.000000	 20.518000 
316.000000	 20.260000 
315.000000	 20.242000 
314.000000	 20.170000 
313.000000	 19.849000 
312.000000	 19.230000 
311.000000	 19.062000 
310.000000	 19.041000 
309.000000	 18.814000 
308.000000	 19.051000 
307.000000	 18.822000 
306.000000	 18.575000 
305.000000	 18.730000 
304.000000	 18.684000 
303.000000	 18.215000 
302.000000	 17.635000 
301.000000	 17.614000 
300.000000	 17.377000 
299.000000	 17.423000 
298.000000	 17.476000 
297.000000	 17.213000 
296.000000	 16.762000 
295.000000	 16.484000 
294.000000	 16.386000 
293.000000	 16.122000 
292.000000	 15.687000 
291.000000	 16.013000 
290.000000	 16.029000 
289.000000	 15.912000 
288.000000	 15.794000 
287.000000	 15.599000 
286.000000	 15.416000 
285.000000	 15.377000 
284.000000	 15.467000 
283.000000	 15.492000 
282.000000	 15.452000 
281.000000	 15.646000 
280.000000	 15.571000 
279.000000	 15.425000 
278.000000	 15.454000 
277.000000	 15.182000 
276.000000	 14.925000 
275.000000	 15.080000 
274.000000	 15.372000 
273.000000	 15.329000 
272.000000	 15.273000 
271.000000	 15.500000 
270.000000	 15.643000 
269.000000	 15.448000 
268.000000	 15.261000 
267.000000	 15.479000 
266.000000	 15.490000 
265.000000	 15.303000 
264.000000	 15.551000 
263.000000	 15.624000 
262.000000	 15.899000 
261.000000	 15.994000 
260.000000	 15.377000 
259.000000	 15.603000 
258.000000	 15.668000 
257.000000	 15.856000 
256.000000	 15.787000 
255.000000	 16.057000 
254.000000	 16.238000 
253.000000	 16.327000 
252.000000	 16.395000 
251.000000	 15.889000 
250.000000	 16.329000 
249.000000	 16.529000 
248.000000	 16.094000 
247.000000	 16.565000 
246.000000	 17.032000 
245.000000	 17.052000 
244.000000	 16.996000 
243.000000	 16.833000 
242.000000	 17.035000 
241.000000	 17.159000 
240.000000	 17.169000 
239.000000	 17.487000 
238.000000	 17.685000 
237.000000	 17.727000 
236.000000	 18.206000 
235.000000	 17.977000 
234.000000	 17.432000 
233.000000	 17.414000 
232.000000	 17.307000 
231.000000	 17.444000 
230.000000	 17.067000 
229.000000	 17.461000 
228.000000	 17.578000 
227.000000	 17.319000 
226.000000	 17.254000 
225.000000	 16.707000 
224.000000	 16.245000 
223.000000	 17.365000 
222.000000	 17.746000 
221.000000	 17.713000 
220.000000	 17.514000 
219.000000	 18.305000 
218.000000	 17.392000 
217.000000	 17.686000 
216.000000	 17.501000 
215.000000	 16.282000 
214.000000	 16.735000 
213.000000	 16.700000 
212.000000	 17.484000 
211.000000	 17.548000 
210.000000	 18.396000 
209.000000	 20.827000 
208.000000	 17.057000 
207.000000	 16.889000 
206.000000	 16.586000 
205.000000	 17.819000 
204.000000	 19.240000 
203.000000	 21.282000 
202.000000	 24.272000 
201.000000	 25.699000 
200.000000	 24.206000 
199.000000	 22.256000 
198.000000	 22.542000 
197.000000	 24.774000 
196.000000	 12.379000 
195.000000	 22.270000 
194.000000	 33.197000 
193.000000	 21.942000 
192.000000	 29.852000 
191.000000	 34.668000 
190.000000	 20.926000 

