ASCII SCAN ANALOG DATA:			h1_1_5e.sac
DATE:	4/26/2012	TIME:	10:53:30 PM

Number of stored SCA cycles			1
Converted SCA cycle			1

INFO SCAN:		1
Data Titel	Countrate
Data Unit	cps
Scan Titel	Energy
Scan Unit	eV
Comment	
First Mass	-10.00
Scan Width	20
Values/Mass	64
Zoom Start	-10.00
Zoom End	 10.00

INFO ADDI DATA:		1
Title	Mass
Unit	amu
Comment	

Cycle	CycleDate	CycleTime	
1	4/26/2012	10:53:30 PM:54
AddiData	1
1.3
ScanData	1
 -10.00	0
  -9.98	0
  -9.97	0
  -9.95	0
  -9.94	0
  -9.92	0
  -9.91	31.9898
  -9.89	0
  -9.88	0
  -9.86	0
  -9.84	0
  -9.83	0
  -9.81	0
  -9.80	0
  -9.78	0
  -9.77	31.9898
  -9.75	0
  -9.73	0
  -9.72	0
  -9.70	0
  -9.69	0
  -9.67	31.9898
  -9.66	0
  -9.64	0
  -9.63	31.9898
  -9.61	0
  -9.59	0
  -9.58	31.9898
  -9.56	0
  -9.55	0
  -9.53	0
  -9.52	0
  -9.50	0
  -9.48	0
  -9.47	0
  -9.45	0
  -9.44	0
  -9.42	0
  -9.41	0
  -9.39	0
  -9.38	0
  -9.36	31.9898
  -9.34	0
  -9.33	0
  -9.31	0
  -9.30	0
  -9.28	0
  -9.27	0
  -9.25	0
  -9.23	0
  -9.22	0
  -9.20	0
  -9.19	0
  -9.17	0
  -9.16	0
  -9.14	0
  -9.13	0
  -9.11	0
  -9.09	0
  -9.08	0
  -9.06	0
  -9.05	0
  -9.03	0
  -9.02	0
  -9.00	0
  -8.98	0
  -8.97	0
  -8.95	0
  -8.94	0
  -8.92	0
  -8.91	0
  -8.89	0
  -8.88	0
  -8.86	0
  -8.84	0
  -8.83	31.9898
  -8.81	0
  -8.80	0
  -8.78	31.9898
  -8.77	0
  -8.75	31.9898
  -8.73	0
  -8.72	0
  -8.70	0
  -8.69	0
  -8.67	0
  -8.66	0
  -8.64	0
  -8.63	0
  -8.61	0
  -8.59	31.9898
  -8.58	63.9795
  -8.56	0
  -8.55	31.9898
  -8.53	0
  -8.52	31.9898
  -8.50	0
  -8.48	0
  -8.47	63.9795
  -8.45	31.9898
  -8.44	0
  -8.42	0
  -8.41	0
  -8.39	0
  -8.38	31.9898
  -8.36	0
  -8.34	0
  -8.33	0
  -8.31	0
  -8.30	95.9693
  -8.28	0
  -8.27	0
  -8.25	0
  -8.23	0
  -8.22	0
  -8.20	0
  -8.19	0
  -8.17	0
  -8.16	0
  -8.14	0
  -8.13	0
  -8.11	0
  -8.09	31.9898
  -8.08	31.9898
  -8.06	63.9795
  -8.05	31.9898
  -8.03	31.9898
  -8.02	0
  -8.00	0
  -7.98	63.9795
  -7.97	31.9898
  -7.95	31.9898
  -7.94	0
  -7.92	0
  -7.91	0
  -7.89	0
  -7.88	31.9898
  -7.86	31.9898
  -7.84	63.9795
  -7.83	31.9898
  -7.81	95.9693
  -7.80	0
  -7.78	0
  -7.77	31.9898
  -7.75	31.9898
  -7.73	31.9898
  -7.72	31.9898
  -7.70	0
  -7.69	0
  -7.67	0
  -7.66	0
  -7.64	0
  -7.63	63.9795
  -7.61	31.9898
  -7.59	63.9795
  -7.58	31.9898
  -7.56	31.9898
  -7.55	0
  -7.53	0
  -7.52	63.9795
  -7.50	0
  -7.48	0
  -7.47	31.9898
  -7.45	0
  -7.44	63.9795
  -7.42	63.9795
  -7.41	31.9898
  -7.39	31.9898
  -7.38	31.9898
  -7.36	31.9898
  -7.34	0
  -7.33	31.9898
  -7.31	31.9898
  -7.30	0
  -7.28	0
  -7.27	63.9795
  -7.25	31.9898
  -7.23	63.9795
  -7.22	63.9795
  -7.20	31.9898
  -7.19	31.9898
  -7.17	0
  -7.16	0
  -7.14	31.9898
  -7.13	63.9795
  -7.11	31.9898
  -7.09	31.9898
  -7.08	0
  -7.06	0
  -7.05	31.9898
  -7.03	63.9795
  -7.02	31.9898
  -7.00	63.9795
  -6.98	0
  -6.97	31.9898
  -6.95	0
  -6.94	31.9898
  -6.92	31.9898
  -6.91	31.9898
  -6.89	31.9898
  -6.88	0
  -6.86	0
  -6.84	95.9693
  -6.83	31.9898
  -6.81	63.9795
  -6.80	0
  -6.78	31.9898
  -6.77	31.9898
  -6.75	63.9795
  -6.73	31.9898
  -6.72	31.9898
  -6.70	31.9898
  -6.69	0
  -6.67	31.9898
  -6.66	31.9898
  -6.64	0
  -6.63	63.9795
  -6.61	95.9693
  -6.59	95.9693
  -6.58	0
  -6.56	31.9898
  -6.55	63.9795
  -6.53	63.9795
  -6.52	31.9898
  -6.50	31.9898
  -6.48	63.9795
  -6.47	0
  -6.45	127.959
  -6.44	127.959
  -6.42	31.9898
  -6.41	31.9898
  -6.39	0
  -6.38	0
  -6.36	0
  -6.34	0
  -6.33	31.9898
  -6.31	31.9898
  -6.30	31.9898
  -6.28	127.959
  -6.27	0
  -6.25	0
  -6.23	63.9795
  -6.22	63.9795
  -6.20	31.9898
  -6.19	0
  -6.17	31.9898
  -6.16	31.9898
  -6.14	0
  -6.13	31.9898
  -6.11	63.9795
  -6.09	31.9898
  -6.08	0
  -6.06	0
  -6.05	95.9693
  -6.03	63.9795
  -6.02	31.9898
  -6.00	0
  -5.98	63.9795
  -5.97	31.9898
  -5.95	63.9795
  -5.94	0
  -5.92	63.9795
  -5.91	63.9795
  -5.89	31.9898
  -5.88	0
  -5.86	63.9795
  -5.84	31.9898
  -5.83	0
  -5.81	63.9795
  -5.80	63.9795
  -5.78	0
  -5.77	31.9898
  -5.75	63.9795
  -5.73	31.9898
  -5.72	31.9898
  -5.70	159.949
  -5.69	31.9898
  -5.67	31.9898
  -5.66	0
  -5.64	31.9898
  -5.63	95.9693
  -5.61	63.9795
  -5.59	127.959
  -5.58	31.9898
  -5.56	31.9898
  -5.55	31.9898
  -5.53	63.9795
  -5.52	63.9795
  -5.50	31.9898
  -5.48	63.9795
  -5.47	31.9898
  -5.45	63.9795
  -5.44	0
  -5.42	31.9898
  -5.41	95.9693
  -5.39	63.9795
  -5.38	95.9693
  -5.36	31.9898
  -5.34	31.9898
  -5.33	95.9693
  -5.31	95.9693
  -5.30	31.9898
  -5.28	63.9795
  -5.27	63.9795
  -5.25	0
  -5.23	95.9693
  -5.22	31.9898
  -5.20	31.9898
  -5.19	31.9898
  -5.17	31.9898
  -5.16	31.9898
  -5.14	127.959
  -5.13	0
  -5.11	31.9898
  -5.09	127.959
  -5.08	31.9898
  -5.06	63.9795
  -5.05	159.949
  -5.03	31.9898
  -5.02	0
  -5.00	191.939
  -4.98	31.9898
  -4.97	0
  -4.95	95.9693
  -4.94	31.9898
  -4.92	0
  -4.91	31.9898
  -4.89	31.9898
  -4.88	159.949
  -4.86	95.9693
  -4.84	127.959
  -4.83	95.9693
  -4.81	95.9693
  -4.80	31.9898
  -4.78	31.9898
  -4.77	31.9898
  -4.75	95.9693
  -4.73	63.9795
  -4.72	63.9795
  -4.70	95.9693
  -4.69	95.9693
  -4.67	95.9693
  -4.66	31.9898
  -4.64	31.9898
  -4.63	0
  -4.61	31.9898
  -4.59	31.9898
  -4.58	31.9898
  -4.56	63.9795
  -4.55	95.9693
  -4.53	31.9898
  -4.52	63.9795
  -4.50	63.9795
  -4.48	31.9898
  -4.47	31.9898
  -4.45	0
  -4.44	31.9898
  -4.42	31.9898
  -4.41	127.959
  -4.39	95.9693
  -4.38	95.9693
  -4.36	95.9693
  -4.34	159.949
  -4.33	63.9795
  -4.31	31.9898
  -4.30	31.9898
  -4.28	159.949
  -4.27	63.9795
  -4.25	31.9898
  -4.23	63.9795
  -4.22	0
  -4.20	31.9898
  -4.19	95.9693
  -4.17	31.9898
  -4.16	63.9795
  -4.14	63.9795
  -4.13	63.9795
  -4.11	95.9693
  -4.09	0
  -4.08	127.959
  -4.06	0
  -4.05	63.9795
  -4.03	31.9898
  -4.02	0
  -4.00	31.9898
  -3.98	0
  -3.97	95.9693
  -3.95	63.9795
  -3.94	31.9898
  -3.92	31.9898
  -3.91	31.9898
  -3.89	63.9795
  -3.88	0
  -3.86	127.959
  -3.84	127.959
  -3.83	63.9795
  -3.81	63.9795
  -3.80	31.9898
  -3.78	95.9693
  -3.77	31.9898
  -3.75	31.9898
  -3.73	31.9898
  -3.72	95.9693
  -3.70	95.9693
  -3.69	31.9898
  -3.67	31.9898
  -3.66	31.9898
  -3.64	95.9693
  -3.63	127.959
  -3.61	63.9795
  -3.59	95.9693
  -3.58	95.9693
  -3.56	31.9898
  -3.55	127.959
  -3.53	95.9693
  -3.52	127.959
  -3.50	191.939
  -3.48	95.9693
  -3.47	63.9795
  -3.45	95.9693
  -3.44	191.939
  -3.42	63.9795
  -3.41	31.9898
  -3.39	63.9795
  -3.38	0
  -3.36	31.9898
  -3.34	127.959
  -3.33	63.9795
  -3.31	31.9898
  -3.30	31.9898
  -3.28	127.959
  -3.27	95.9693
  -3.25	31.9898
  -3.23	95.9693
  -3.22	31.9898
  -3.20	0
  -3.19	191.939
  -3.17	63.9795
  -3.16	0
  -3.14	63.9795
  -3.13	31.9898
  -3.11	127.959
  -3.09	223.928
  -3.08	0
  -3.06	95.9693
  -3.05	0
  -3.03	159.949
  -3.02	95.9693
  -3.00	31.9898
  -2.98	95.9693
  -2.97	159.949
  -2.95	31.9898
  -2.94	63.9795
  -2.92	127.959
  -2.91	95.9693
  -2.89	159.949
  -2.88	191.939
  -2.86	95.9693
  -2.84	63.9795
  -2.83	63.9795
  -2.81	63.9795
  -2.80	31.9898
  -2.78	95.9693
  -2.77	63.9795
  -2.75	63.9795
  -2.73	127.959
  -2.72	63.9795
  -2.70	63.9795
  -2.69	159.949
  -2.67	63.9795
  -2.66	95.9693
  -2.64	127.959
  -2.63	127.959
  -2.61	31.9898
  -2.59	31.9898
  -2.58	95.9693
  -2.56	95.9693
  -2.55	63.9795
  -2.53	0
  -2.52	95.9693
  -2.50	31.9898
  -2.48	95.9693
  -2.47	95.9693
  -2.45	63.9795
  -2.44	95.9693
  -2.42	127.959
  -2.41	63.9795
  -2.39	159.949
  -2.38	191.939
  -2.36	31.9898
  -2.34	31.9898
  -2.33	63.9795
  -2.31	95.9693
  -2.30	0
  -2.28	63.9795
  -2.27	31.9898
  -2.25	31.9898
  -2.23	31.9898
  -2.22	127.959
  -2.20	63.9795
  -2.19	31.9898
  -2.17	95.9693
  -2.16	95.9693
  -2.14	95.9693
  -2.13	95.9693
  -2.11	63.9795
  -2.09	95.9693
  -2.08	31.9898
  -2.06	95.9693
  -2.05	127.959
  -2.03	159.949
  -2.02	127.959
  -2.00	63.9795
  -1.98	31.9898
  -1.97	0
  -1.95	31.9898
  -1.94	31.9898
  -1.92	127.959
  -1.91	31.9898
  -1.89	31.9898
  -1.88	127.959
  -1.86	159.949
  -1.84	63.9795
  -1.83	159.949
  -1.81	0
  -1.80	63.9795
  -1.78	63.9795
  -1.77	127.959
  -1.75	31.9898
  -1.73	127.959
  -1.72	0
  -1.70	31.9898
  -1.69	159.949
  -1.67	63.9795
  -1.66	0
  -1.64	31.9898
  -1.63	95.9693
  -1.61	31.9898
  -1.59	31.9898
  -1.58	63.9795
  -1.56	95.9693
  -1.55	63.9795
  -1.53	63.9795
  -1.52	95.9693
  -1.50	63.9795
  -1.48	31.9898
  -1.47	159.949
  -1.45	63.9795
  -1.44	0
  -1.42	31.9898
  -1.41	63.9795
  -1.39	95.9693
  -1.38	95.9693
  -1.36	95.9693
  -1.34	31.9898
  -1.33	31.9898
  -1.31	63.9795
  -1.30	63.9795
  -1.28	127.959
  -1.27	0
  -1.25	31.9898
  -1.23	63.9795
  -1.22	63.9795
  -1.20	127.959
  -1.19	127.959
  -1.17	31.9898
  -1.16	31.9898
  -1.14	127.959
  -1.13	31.9898
  -1.11	63.9795
  -1.09	159.949
  -1.08	31.9898
  -1.06	31.9898
  -1.05	31.9898
  -1.03	31.9898
  -1.02	63.9795
  -1.00	127.959
  -0.98	0
  -0.97	63.9795
  -0.95	31.9898
  -0.94	31.9898
  -0.92	31.9898
  -0.91	31.9898
  -0.89	0
  -0.88	95.9693
  -0.86	31.9898
  -0.84	31.9898
  -0.83	63.9795
  -0.81	0
  -0.80	95.9693
  -0.78	95.9693
  -0.77	95.9693
  -0.75	31.9898
  -0.73	159.949
  -0.72	63.9795
  -0.70	63.9795
  -0.69	95.9693
  -0.67	63.9795
  -0.66	0
  -0.64	0
  -0.63	31.9898
  -0.61	95.9693
  -0.59	63.9795
  -0.58	31.9898
  -0.56	63.9795
  -0.55	95.9693
  -0.53	63.9795
  -0.52	63.9795
  -0.50	31.9898
  -0.48	95.9693
  -0.47	31.9898
  -0.45	31.9898
  -0.44	95.9693
  -0.42	127.959
  -0.41	63.9795
  -0.39	31.9898
  -0.38	31.9898
  -0.36	63.9795
  -0.34	95.9693
  -0.33	31.9898
  -0.31	127.959
  -0.30	63.9795
  -0.28	63.9795
  -0.27	159.949
  -0.25	31.9898
  -0.23	63.9795
  -0.22	63.9795
  -0.20	0
  -0.19	95.9693
  -0.17	31.9898
  -0.16	95.9693
  -0.14	31.9898
  -0.13	63.9795
  -0.11	0
  -0.09	223.928
  -0.08	127.959
  -0.06	63.9795
  -0.05	31.9898
  -0.03	95.9693
  -0.02	0
   0.00	31.9898
   0.02	95.9693
   0.03	0
   0.05	127.959
   0.06	63.9795
   0.08	127.959
   0.09	127.959
   0.11	63.9795
   0.13	159.949
   0.14	63.9795
   0.16	95.9693
   0.17	63.9795
   0.19	95.9693
   0.20	63.9795
   0.22	127.959
   0.23	191.939
   0.25	127.959
   0.27	63.9795
   0.28	95.9693
   0.30	63.9795
   0.31	63.9795
   0.33	95.9693
   0.34	159.949
   0.36	159.949
   0.38	191.939
   0.39	0
   0.41	63.9795
   0.42	95.9693
   0.44	63.9795
   0.45	127.959
   0.47	63.9795
   0.48	63.9795
   0.50	31.9898
   0.52	95.9693
   0.53	31.9898
   0.55	63.9795
   0.56	95.9693
   0.58	159.949
   0.59	63.9795
   0.61	127.959
   0.63	95.9693
   0.64	0
   0.66	31.9898
   0.67	63.9795
   0.69	0
   0.70	63.9795
   0.72	95.9693
   0.73	95.9693
   0.75	63.9795
   0.77	0
   0.78	31.9898
   0.80	127.959
   0.81	159.949
   0.83	63.9795
   0.84	127.959
   0.86	0
   0.88	95.9693
   0.89	95.9693
   0.91	63.9795
   0.92	63.9795
   0.94	0
   0.95	0
   0.97	31.9898
   0.98	31.9898
   1.00	63.9795
   1.02	63.9795
   1.03	63.9795
   1.05	31.9898
   1.06	95.9693
   1.08	127.959
   1.09	31.9898
   1.11	63.9795
   1.13	0
   1.14	63.9795
   1.16	95.9693
   1.17	0
   1.19	159.949
   1.20	63.9795
   1.22	63.9795
   1.23	0
   1.25	0
   1.27	31.9898
   1.28	63.9795
   1.30	63.9795
   1.31	31.9898
   1.33	63.9795
   1.34	95.9693
   1.36	63.9795
   1.38	31.9898
   1.39	31.9898
   1.41	0
   1.42	63.9795
   1.44	63.9795
   1.45	63.9795
   1.47	31.9898
   1.48	127.959
   1.50	0
   1.52	159.949
   1.53	63.9795
   1.55	31.9898
   1.56	95.9693
   1.58	0
   1.59	31.9898
   1.61	159.949
   1.63	31.9898
   1.64	31.9898
   1.66	95.9693
   1.67	127.959
   1.69	95.9693
   1.70	31.9898
   1.72	31.9898
   1.73	63.9795
   1.75	127.959
   1.77	31.9898
   1.78	63.9795
   1.80	63.9795
   1.81	159.949
   1.83	0
   1.84	31.9898
   1.86	63.9795
   1.88	95.9693
   1.89	31.9898
   1.91	63.9795
   1.92	63.9795
   1.94	63.9795
   1.95	0
   1.97	63.9795
   1.98	31.9898
   2.00	159.949
   2.02	0
   2.03	95.9693
   2.05	63.9795
   2.06	63.9795
   2.08	0
   2.09	127.959
   2.11	63.9795
   2.13	63.9795
   2.14	31.9898
   2.16	0
   2.17	63.9795
   2.19	31.9898
   2.20	95.9693
   2.22	63.9795
   2.23	63.9795
   2.25	127.959
   2.27	31.9898
   2.28	0
   2.30	31.9898
   2.31	31.9898
   2.33	31.9898
   2.34	31.9898
   2.36	0
   2.38	63.9795
   2.39	0
   2.41	31.9898
   2.42	63.9795
   2.44	0
   2.45	31.9898
   2.47	95.9693
   2.48	127.959
   2.50	0
   2.52	63.9795
   2.53	95.9693
   2.55	0
   2.56	95.9693
   2.58	31.9898
   2.59	95.9693
   2.61	31.9898
   2.63	0
   2.64	95.9693
   2.66	63.9795
   2.67	159.949
   2.69	31.9898
   2.70	31.9898
   2.72	31.9898
   2.73	95.9693
   2.75	31.9898
   2.77	63.9795
   2.78	31.9898
   2.80	0
   2.81	0
   2.83	63.9795
   2.84	0
   2.86	31.9898
   2.88	31.9898
   2.89	95.9693
   2.91	95.9693
   2.92	127.959
   2.94	63.9795
   2.95	0
   2.97	95.9693
   2.98	63.9795
   3.00	95.9693
   3.02	127.959
   3.03	0
   3.05	31.9898
   3.06	63.9795
   3.08	95.9693
   3.09	31.9898
   3.11	63.9795
   3.13	31.9898
   3.14	31.9898
   3.16	63.9795
   3.17	63.9795
   3.19	31.9898
   3.20	31.9898
   3.22	63.9795
   3.23	0
   3.25	127.959
   3.27	31.9898
   3.28	95.9693
   3.30	127.959
   3.31	0
   3.33	31.9898
   3.34	31.9898
   3.36	63.9795
   3.38	31.9898
   3.39	31.9898
   3.41	159.949
   3.42	63.9795
   3.44	127.959
   3.45	0
   3.47	63.9795
   3.48	63.9795
   3.50	63.9795
   3.52	31.9898
   3.53	63.9795
   3.55	63.9795
   3.56	95.9693
   3.58	95.9693
   3.59	31.9898
   3.61	95.9693
   3.63	31.9898
   3.64	0
   3.66	95.9693
   3.67	0
   3.69	191.939
   3.70	63.9795
   3.72	31.9898
   3.73	31.9898
   3.75	63.9795
   3.77	95.9693
   3.78	31.9898
   3.80	95.9693
   3.81	31.9898
   3.83	63.9795
   3.84	63.9795
   3.86	63.9795
   3.88	31.9898
   3.89	63.9795
   3.91	0
   3.92	95.9693
   3.94	31.9898
   3.95	31.9898
   3.97	31.9898
   3.98	95.9693
   4.00	31.9898
   4.02	159.949
   4.03	63.9795
   4.05	31.9898
   4.06	63.9795
   4.08	31.9898
   4.09	63.9795
   4.11	63.9795
   4.13	95.9693
   4.14	95.9693
   4.16	63.9795
   4.17	63.9795
   4.19	31.9898
   4.20	127.959
   4.22	127.959
   4.23	0
   4.25	63.9795
   4.27	31.9898
   4.28	127.959
   4.30	159.949
   4.31	191.939
   4.33	159.949
   4.34	63.9795
   4.36	127.959
   4.38	63.9795
   4.39	95.9693
   4.41	223.928
   4.42	63.9795
   4.44	95.9693
   4.45	95.9693
   4.47	63.9795
   4.48	127.959
   4.50	191.939
   4.52	63.9795
   4.53	63.9795
   4.55	127.959
   4.56	95.9693
   4.58	95.9693
   4.59	31.9898
   4.61	95.9693
   4.63	159.949
   4.64	63.9795
   4.66	31.9898
   4.67	63.9795
   4.69	63.9795
   4.70	159.949
   4.72	287.908
   4.73	31.9898
   4.75	31.9898
   4.77	31.9898
   4.78	127.959
   4.80	63.9795
   4.81	95.9693
   4.83	159.949
   4.84	159.949
   4.86	63.9795
   4.88	63.9795
   4.89	159.949
   4.91	159.949
   4.92	95.9693
   4.94	63.9795
   4.95	63.9795
   4.97	159.949
   4.98	159.949
   5.00	95.9693
   5.02	159.949
   5.03	159.949
   5.05	127.959
   5.06	191.939
   5.08	31.9898
   5.09	223.928
   5.11	319.898
   5.13	95.9693
   5.14	287.908
   5.16	159.949
   5.17	159.949
   5.19	287.908
   5.20	223.928
   5.22	127.959
   5.23	159.949
   5.25	479.847
   5.27	191.939
   5.28	383.877
   5.30	351.888
   5.31	287.908
   5.33	351.888
   5.34	351.888
   5.36	415.867
   5.38	479.847
   5.39	479.847
   5.41	447.857
   5.42	607.806
   5.44	671.785
   5.45	927.703
   5.47	671.785
   5.48	895.714
   5.50	895.714
   5.52	1183.62
   5.53	1119.64
   5.55	1407.55
   5.56	1279.59
   5.58	1631.48
   5.59	1855.41
   5.61	2207.29
   5.63	2047.35
   5.64	2079.34
   5.66	2047.35
   5.67	2911.07
   5.69	2783.11
   5.70	3007.04
   5.72	2655.15
   5.73	3198.98
   5.75	3294.95
   5.77	3774.79
   5.78	3039.03
   5.80	4574.54
   5.81	3774.79
   5.83	3934.74
   5.84	4926.42
   5.86	4254.64
   5.88	3966.73
   5.89	4766.48
   5.91	3966.73
   5.92	4606.53
   5.94	4894.44
   5.95	4574.54
   5.97	4862.45
   5.98	4766.48
   6.00	5086.37
   6.02	4190.66
   6.03	4190.66
   6.05	4254.64
   6.06	5118.36
   6.08	4318.62
   6.09	5022.39
   6.11	5022.39
   6.13	4382.6
   6.14	4638.52
   6.16	4350.61
   6.17	4574.54
   6.19	3806.78
   6.20	4094.69
   6.22	4126.68
   6.23	3934.74
   6.25	4318.62
   6.27	3742.8
   6.28	3198.98
   6.30	4030.71
   6.31	3550.86
   6.33	3230.97
   6.34	3358.93
   6.36	3646.83
   6.38	3870.76
   6.39	3390.92
   6.41	3550.86
   6.42	3358.93
   6.44	3582.85
   6.45	3294.95
   6.47	2975.05
   6.48	3166.99
   6.50	3007.04
   6.52	2655.15
   6.53	3103.01
   6.55	2751.12
   6.56	3230.97
   6.58	3230.97
   6.59	2431.22
   6.61	2623.16
   6.63	3071.02
   6.64	3007.04
   6.66	2047.35
   6.67	2847.09
   6.69	3007.04
   6.70	2207.29
   6.72	2335.25
   6.73	2591.17
   6.75	2207.29
   6.77	2271.27
   6.78	2271.27
   6.80	2463.21
   6.81	2079.34
   6.83	2623.16
   6.84	1791.43
   6.86	2655.15
   6.88	2207.29
   6.89	2015.36
   6.91	2079.34
   6.92	1695.46
   6.94	2015.36
   6.95	1695.46
   6.97	2335.25
   6.98	1919.39
   7.00	1855.41
   7.02	2527.19
   7.03	1919.39
   7.05	1279.59
   7.06	1599.49
   7.08	1855.41
   7.09	1823.42
   7.11	1375.56
   7.13	1599.49
   7.14	1407.55
   7.16	1855.41
   7.17	1727.45
   7.19	1855.41
   7.20	1727.45
   7.22	1439.54
   7.23	1823.42
   7.25	1471.53
   7.27	1375.56
   7.28	1599.49
   7.30	1503.52
   7.31	1535.51
   7.33	1791.43
   7.34	1663.47
   7.36	1311.58
   7.38	1375.56
   7.39	1567.5
   7.41	1631.48
   7.42	1631.48
   7.44	1407.55
   7.45	1695.46
   7.47	1503.52
   7.48	1887.4
   7.50	1055.66
   7.52	1343.57
   7.53	1823.42
   7.55	1631.48
   7.56	1023.67
   7.58	1215.61
   7.59	1567.5
   7.61	1503.52
   7.63	1503.52
   7.64	1887.4
   7.66	1375.56
   7.67	1087.65
   7.69	1471.53
   7.70	1343.57
   7.72	1247.6
   7.73	1055.66
   7.75	1343.57
   7.77	959.693
   7.78	1663.47
   7.80	1471.53
   7.81	1599.49
   7.83	1599.49
   7.84	1439.54
   7.86	1503.52
   7.88	1535.51
   7.89	1375.56
   7.91	1503.52
   7.92	1343.57
   7.94	1823.42
   7.95	1439.54
   7.97	1823.42
   7.98	1247.6
   8.00	1247.6
   8.02	1439.54
   8.03	1663.47
   8.05	1887.4
   8.06	1631.48
   8.08	1535.51
   8.09	1759.44
   8.11	1663.47
   8.13	1311.58
   8.14	1567.5
   8.16	2015.36
   8.17	1535.51
   8.19	1503.52
   8.20	1887.4
   8.22	1663.47
   8.23	2015.36
   8.25	1695.46
   8.27	1663.47
   8.28	2047.35
   8.30	1791.43
   8.31	1951.38
   8.33	1695.46
   8.34	1727.45
   8.36	1663.47
   8.38	1567.5
   8.39	1695.46
   8.41	2143.31
   8.42	2015.36
   8.44	1887.4
   8.45	1951.38
   8.47	2143.31
   8.48	1791.43
   8.50	2111.32
   8.52	1887.4
   8.53	1663.47
   8.55	2175.3
   8.56	1951.38
   8.58	1791.43
   8.59	2687.14
   8.61	2207.29
   8.63	1759.44
   8.64	2303.26
   8.66	2143.31
   8.67	2143.31
   8.69	2591.17
   8.70	2015.36
   8.72	2463.21
   8.73	1695.46
   8.75	2079.34
   8.77	2143.31
   8.78	2079.34
   8.80	2623.16
   8.81	2687.14
   8.83	2335.25
   8.84	2527.19
   8.86	2367.24
   8.88	2335.25
   8.89	2527.19
   8.91	2815.1
   8.92	2719.13
   8.94	2975.05
   8.95	2847.09
   8.97	2911.07
   8.98	3071.02
   9.00	3230.97
   9.02	2367.24
   9.03	2815.1
   9.05	3103.01
   9.06	3007.04
   9.08	3166.99
   9.09	2911.07
   9.11	3135
   9.13	2591.17
   9.14	2847.09
   9.16	2495.2
   9.17	3071.02
   9.19	2591.17
   9.20	2303.26
   9.22	2687.14
   9.23	2623.16
   9.25	2335.25
   9.27	1727.45
   9.28	1951.38
   9.30	2143.31
   9.31	1823.42
   9.33	1535.51
   9.34	1599.49
   9.36	1215.61
   9.38	1663.47
   9.39	1151.63
   9.41	1247.6
   9.42	1215.61
   9.44	863.724
   9.45	799.744
   9.47	767.755
   9.48	447.857
   9.50	639.795
   9.52	415.867
   9.53	447.857
   9.55	607.806
   9.56	383.877
   9.58	287.908
   9.59	223.928
   9.61	287.908
   9.63	223.928
   9.64	159.949
   9.66	127.959
   9.67	63.9795
   9.69	127.959
   9.70	191.939
   9.72	95.9693
   9.73	31.9898
   9.75	191.939
   9.77	0
   9.78	0
   9.80	95.9693
   9.81	0
   9.83	0
   9.84	95.9693
   9.86	0
   9.88	95.9693
   9.89	31.9898
   9.91	31.9898
   9.92	31.9898
   9.94	31.9898
   9.95	63.9795
   9.97	31.9898
   9.98	0
?	?
