ASCII SCAN ANALOG DATA:			h1_4e.sac
DATE:	4/26/2012	TIME:	10:25:59 PM

Number of stored SCA cycles			1
Converted SCA cycle			1

INFO SCAN:		1
Data Titel	Countrate
Data Unit	cps
Scan Titel	Energy
Scan Unit	eV
Comment	
First Mass	-10.00
Scan Width	11
Values/Mass	64
Zoom Start	-10.00
Zoom End	  1.00

INFO ADDI DATA:		1
Title	Mass
Unit	amu
Comment	

Cycle	CycleDate	CycleTime	
1	4/26/2012	10:25:59 PM:97
AddiData	1
1.3
ScanData	1
 -10.00	0
  -9.98	31.9898
  -9.97	0
  -9.95	0
  -9.94	0
  -9.92	0
  -9.91	0
  -9.89	31.9898
  -9.88	0
  -9.86	0
  -9.84	31.9898
  -9.83	0
  -9.81	0
  -9.80	0
  -9.78	0
  -9.77	0
  -9.75	0
  -9.73	0
  -9.72	0
  -9.70	0
  -9.69	0
  -9.67	0
  -9.66	0
  -9.64	0
  -9.63	0
  -9.61	0
  -9.59	0
  -9.58	0
  -9.56	0
  -9.55	0
  -9.53	0
  -9.52	0
  -9.50	0
  -9.48	0
  -9.47	0
  -9.45	0
  -9.44	0
  -9.42	0
  -9.41	0
  -9.39	0
  -9.38	0
  -9.36	0
  -9.34	0
  -9.33	0
  -9.31	0
  -9.30	0
  -9.28	31.9898
  -9.27	0
  -9.25	31.9898
  -9.23	31.9898
  -9.22	0
  -9.20	0
  -9.19	0
  -9.17	0
  -9.16	31.9898
  -9.14	31.9898
  -9.13	95.9693
  -9.11	31.9898
  -9.09	0
  -9.08	0
  -9.06	31.9898
  -9.05	0
  -9.03	63.9795
  -9.02	0
  -9.00	0
  -8.98	0
  -8.97	0
  -8.95	63.9795
  -8.94	0
  -8.92	0
  -8.91	31.9898
  -8.89	0
  -8.88	0
  -8.86	31.9898
  -8.84	0
  -8.83	63.9795
  -8.81	31.9898
  -8.80	0
  -8.78	0
  -8.77	0
  -8.75	0
  -8.73	31.9898
  -8.72	63.9795
  -8.70	0
  -8.69	31.9898
  -8.67	127.959
  -8.66	31.9898
  -8.64	31.9898
  -8.63	0
  -8.61	31.9898
  -8.59	63.9795
  -8.58	0
  -8.56	0
  -8.55	31.9898
  -8.53	95.9693
  -8.52	127.959
  -8.50	31.9898
  -8.48	0
  -8.47	31.9898
  -8.45	127.959
  -8.44	0
  -8.42	0
  -8.41	31.9898
  -8.39	0
  -8.38	95.9693
  -8.36	31.9898
  -8.34	63.9795
  -8.33	31.9898
  -8.31	31.9898
  -8.30	95.9693
  -8.28	95.9693
  -8.27	191.939
  -8.25	31.9898
  -8.23	0
  -8.22	95.9693
  -8.20	95.9693
  -8.19	127.959
  -8.17	31.9898
  -8.16	31.9898
  -8.14	159.949
  -8.13	31.9898
  -8.11	31.9898
  -8.09	127.959
  -8.08	63.9795
  -8.06	95.9693
  -8.05	31.9898
  -8.03	63.9795
  -8.02	63.9795
  -8.00	95.9693
  -7.98	31.9898
  -7.97	31.9898
  -7.95	0
  -7.94	127.959
  -7.92	159.949
  -7.91	31.9898
  -7.89	95.9693
  -7.88	31.9898
  -7.86	31.9898
  -7.84	191.939
  -7.83	95.9693
  -7.81	63.9795
  -7.80	95.9693
  -7.78	159.949
  -7.77	127.959
  -7.75	63.9795
  -7.73	95.9693
  -7.72	95.9693
  -7.70	95.9693
  -7.69	159.949
  -7.67	31.9898
  -7.66	159.949
  -7.64	31.9898
  -7.63	63.9795
  -7.61	0
  -7.59	223.928
  -7.58	0
  -7.56	95.9693
  -7.55	63.9795
  -7.53	63.9795
  -7.52	95.9693
  -7.50	63.9795
  -7.48	31.9898
  -7.47	159.949
  -7.45	95.9693
  -7.44	63.9795
  -7.42	31.9898
  -7.41	159.949
  -7.39	95.9693
  -7.38	31.9898
  -7.36	63.9795
  -7.34	159.949
  -7.33	127.959
  -7.31	223.928
  -7.30	63.9795
  -7.28	63.9795
  -7.27	95.9693
  -7.25	63.9795
  -7.23	63.9795
  -7.22	95.9693
  -7.20	0
  -7.19	63.9795
  -7.17	63.9795
  -7.16	95.9693
  -7.14	127.959
  -7.13	63.9795
  -7.11	0
  -7.09	95.9693
  -7.08	127.959
  -7.06	63.9795
  -7.05	95.9693
  -7.03	159.949
  -7.02	159.949
  -7.00	127.959
  -6.98	95.9693
  -6.97	159.949
  -6.95	63.9795
  -6.94	31.9898
  -6.92	127.959
  -6.91	127.959
  -6.89	31.9898
  -6.88	63.9795
  -6.86	223.928
  -6.84	63.9795
  -6.83	255.918
  -6.81	95.9693
  -6.80	95.9693
  -6.78	127.959
  -6.77	31.9898
  -6.75	127.959
  -6.73	31.9898
  -6.72	63.9795
  -6.70	127.959
  -6.69	127.959
  -6.67	191.939
  -6.66	95.9693
  -6.64	31.9898
  -6.63	159.949
  -6.61	63.9795
  -6.59	63.9795
  -6.58	63.9795
  -6.56	95.9693
  -6.55	191.939
  -6.53	63.9795
  -6.52	95.9693
  -6.50	31.9898
  -6.48	127.959
  -6.47	191.939
  -6.45	63.9795
  -6.44	191.939
  -6.42	159.949
  -6.41	127.959
  -6.39	159.949
  -6.38	191.939
  -6.36	127.959
  -6.34	95.9693
  -6.33	63.9795
  -6.31	95.9693
  -6.30	127.959
  -6.28	95.9693
  -6.27	159.949
  -6.25	191.939
  -6.23	63.9795
  -6.22	63.9795
  -6.20	63.9795
  -6.19	95.9693
  -6.17	223.928
  -6.16	95.9693
  -6.14	159.949
  -6.13	159.949
  -6.11	159.949
  -6.09	31.9898
  -6.08	223.928
  -6.06	191.939
  -6.05	255.918
  -6.03	95.9693
  -6.02	127.959
  -6.00	63.9795
  -5.98	95.9693
  -5.97	63.9795
  -5.95	127.959
  -5.94	95.9693
  -5.92	255.918
  -5.91	223.928
  -5.89	127.959
  -5.88	191.939
  -5.86	159.949
  -5.84	159.949
  -5.83	255.918
  -5.81	159.949
  -5.80	159.949
  -5.78	287.908
  -5.77	63.9795
  -5.75	127.959
  -5.73	159.949
  -5.72	191.939
  -5.70	159.949
  -5.69	191.939
  -5.67	287.908
  -5.66	127.959
  -5.64	63.9795
  -5.63	127.959
  -5.61	191.939
  -5.59	63.9795
  -5.58	223.928
  -5.56	159.949
  -5.55	127.959
  -5.53	95.9693
  -5.52	95.9693
  -5.50	223.928
  -5.48	127.959
  -5.47	127.959
  -5.45	63.9795
  -5.44	159.949
  -5.42	255.918
  -5.41	255.918
  -5.39	223.928
  -5.38	95.9693
  -5.36	191.939
  -5.34	127.959
  -5.33	223.928
  -5.31	95.9693
  -5.30	127.959
  -5.28	63.9795
  -5.27	127.959
  -5.25	255.918
  -5.23	127.959
  -5.22	255.918
  -5.20	255.918
  -5.19	63.9795
  -5.17	63.9795
  -5.16	127.959
  -5.14	287.908
  -5.13	95.9693
  -5.11	255.918
  -5.09	127.959
  -5.08	63.9795
  -5.06	255.918
  -5.05	95.9693
  -5.03	255.918
  -5.02	191.939
  -5.00	127.959
  -4.98	191.939
  -4.97	191.939
  -4.95	383.877
  -4.94	159.949
  -4.92	159.949
  -4.91	319.898
  -4.89	95.9693
  -4.88	95.9693
  -4.86	255.918
  -4.84	127.959
  -4.83	191.939
  -4.81	255.918
  -4.80	319.898
  -4.78	159.949
  -4.77	191.939
  -4.75	159.949
  -4.73	159.949
  -4.72	255.918
  -4.70	159.949
  -4.69	415.867
  -4.67	159.949
  -4.66	319.898
  -4.64	447.857
  -4.63	319.898
  -4.61	319.898
  -4.59	319.898
  -4.58	255.918
  -4.56	255.918
  -4.55	319.898
  -4.53	223.928
  -4.52	95.9693
  -4.50	223.928
  -4.48	191.939
  -4.47	319.898
  -4.45	255.918
  -4.44	95.9693
  -4.42	191.939
  -4.41	255.918
  -4.39	383.877
  -4.38	223.928
  -4.36	319.898
  -4.34	255.918
  -4.33	223.928
  -4.31	191.939
  -4.30	191.939
  -4.28	447.857
  -4.27	383.877
  -4.25	351.888
  -4.23	127.959
  -4.22	287.908
  -4.20	319.898
  -4.19	351.888
  -4.17	415.867
  -4.16	319.898
  -4.14	255.918
  -4.13	383.877
  -4.11	287.908
  -4.09	127.959
  -4.08	351.888
  -4.06	319.898
  -4.05	351.888
  -4.03	479.847
  -4.02	511.836
  -4.00	415.867
  -3.98	607.806
  -3.97	511.836
  -3.95	575.816
  -3.94	575.816
  -3.92	191.939
  -3.91	191.939
  -3.89	383.877
  -3.88	479.847
  -3.86	415.867
  -3.84	511.836
  -3.83	479.847
  -3.81	447.857
  -3.80	447.857
  -3.78	607.806
  -3.77	255.918
  -3.75	543.826
  -3.73	639.795
  -3.72	415.867
  -3.70	287.908
  -3.69	511.836
  -3.67	767.755
  -3.66	159.949
  -3.64	351.888
  -3.63	351.888
  -3.61	575.816
  -3.59	639.795
  -3.58	575.816
  -3.56	543.826
  -3.55	639.795
  -3.53	575.816
  -3.52	543.826
  -3.50	607.806
  -3.48	575.816
  -3.47	639.795
  -3.45	287.908
  -3.44	671.785
  -3.42	415.867
  -3.41	671.785
  -3.39	415.867
  -3.38	447.857
  -3.36	639.795
  -3.34	607.806
  -3.33	479.847
  -3.31	703.775
  -3.30	1023.67
  -3.28	671.785
  -3.27	447.857
  -3.25	575.816
  -3.23	767.755
  -3.22	799.744
  -3.20	415.867
  -3.19	767.755
  -3.17	671.785
  -3.16	895.714
  -3.14	703.775
  -3.13	863.724
  -3.11	767.755
  -3.09	1055.66
  -3.08	447.857
  -3.06	767.755
  -3.05	991.683
  -3.03	607.806
  -3.02	831.734
  -3.00	543.826
  -2.98	639.795
  -2.97	639.795
  -2.95	671.785
  -2.94	831.734
  -2.92	799.744
  -2.91	1151.63
  -2.89	895.714
  -2.88	735.765
  -2.86	863.724
  -2.84	1055.66
  -2.83	1119.64
  -2.81	639.795
  -2.80	1023.67
  -2.78	1055.66
  -2.77	1375.56
  -2.75	767.755
  -2.73	1087.65
  -2.72	1087.65
  -2.70	1151.63
  -2.69	1087.65
  -2.67	1247.6
  -2.66	1119.64
  -2.64	991.683
  -2.63	479.847
  -2.61	1119.64
  -2.59	799.744
  -2.58	991.683
  -2.56	1055.66
  -2.55	1503.52
  -2.53	991.683
  -2.52	1343.57
  -2.50	927.703
  -2.48	1215.61
  -2.47	1375.56
  -2.45	1151.63
  -2.44	1087.65
  -2.42	1311.58
  -2.41	1503.52
  -2.39	1471.53
  -2.38	1503.52
  -2.36	1247.6
  -2.34	1215.61
  -2.33	1279.59
  -2.31	1567.5
  -2.30	1055.66
  -2.28	1695.46
  -2.27	1631.48
  -2.25	1375.56
  -2.23	959.693
  -2.22	1727.45
  -2.20	1919.39
  -2.19	1247.6
  -2.17	1599.49
  -2.16	1503.52
  -2.14	1503.52
  -2.13	1599.49
  -2.11	1279.59
  -2.09	1631.48
  -2.08	1375.56
  -2.06	1855.41
  -2.05	1311.58
  -2.03	1759.44
  -2.02	1759.44
  -2.00	1759.44
  -1.98	1727.45
  -1.97	1535.51
  -1.95	1759.44
  -1.94	1791.43
  -1.92	1535.51
  -1.91	1919.39
  -1.89	1535.51
  -1.88	1951.38
  -1.86	1503.52
  -1.84	1727.45
  -1.83	1599.49
  -1.81	1663.47
  -1.80	1695.46
  -1.78	2079.34
  -1.77	1695.46
  -1.75	2015.36
  -1.73	1695.46
  -1.72	1695.46
  -1.70	1311.58
  -1.69	1695.46
  -1.67	1919.39
  -1.66	1503.52
  -1.64	1471.53
  -1.63	1535.51
  -1.61	1791.43
  -1.59	1567.5
  -1.58	1439.54
  -1.56	1343.57
  -1.55	1343.57
  -1.53	1311.58
  -1.52	1439.54
  -1.50	1375.56
  -1.48	1119.64
  -1.47	1087.65
  -1.45	1183.62
  -1.44	959.693
  -1.42	991.683
  -1.41	799.744
  -1.39	1055.66
  -1.38	1247.6
  -1.36	735.765
  -1.34	927.703
  -1.33	831.734
  -1.31	895.714
  -1.30	671.785
  -1.28	863.724
  -1.27	575.816
  -1.25	735.765
  -1.23	703.775
  -1.22	575.816
  -1.20	511.836
  -1.19	671.785
  -1.17	895.714
  -1.16	351.888
  -1.14	415.867
  -1.13	479.847
  -1.11	351.888
  -1.09	607.806
  -1.08	319.898
  -1.06	351.888
  -1.05	255.918
  -1.03	447.857
  -1.02	351.888
  -1.00	255.918
  -0.98	287.908
  -0.97	223.928
  -0.95	95.9693
  -0.94	127.959
  -0.92	191.939
  -0.91	127.959
  -0.89	127.959
  -0.88	191.939
  -0.86	95.9693
  -0.84	223.928
  -0.83	191.939
  -0.81	127.959
  -0.80	159.949
  -0.78	63.9795
  -0.77	31.9898
  -0.75	0
  -0.73	63.9795
  -0.72	95.9693
  -0.70	63.9795
  -0.69	0
  -0.67	63.9795
  -0.66	0
  -0.64	0
  -0.63	63.9795
  -0.61	0
  -0.59	31.9898
  -0.58	0
  -0.56	0
  -0.55	31.9898
  -0.53	0
  -0.52	31.9898
  -0.50	31.9898
  -0.48	0
  -0.47	31.9898
  -0.45	31.9898
  -0.44	31.9898
  -0.42	31.9898
  -0.41	31.9898
  -0.39	31.9898
  -0.38	31.9898
  -0.36	0
  -0.34	0
  -0.33	31.9898
  -0.31	0
  -0.30	0
  -0.28	0
  -0.27	0
  -0.25	0
  -0.23	0
  -0.22	0
  -0.20	0
  -0.19	0
  -0.17	0
  -0.16	0
  -0.14	0
  -0.13	0
  -0.11	0
  -0.09	0
  -0.08	0
  -0.06	0
  -0.05	0
  -0.03	0
  -0.02	0
   0.00	0
   0.02	0
   0.03	0
   0.05	0
   0.06	0
   0.08	31.9898
   0.09	0
   0.11	0
   0.13	0
   0.14	0
   0.16	0
   0.17	0
   0.19	0
   0.20	0
   0.22	0
   0.23	0
   0.25	0
   0.27	0
   0.28	0
   0.30	0
   0.31	0
   0.33	0
   0.34	31.9898
   0.36	0
   0.38	0
   0.39	0
   0.41	0
   0.42	0
   0.44	0
   0.45	31.9898
   0.47	0
   0.48	0
   0.50	0
   0.52	0
   0.53	0
   0.55	0
   0.56	0
   0.58	0
   0.59	0
   0.61	0
   0.63	0
   0.64	0
   0.66	0
   0.67	0
   0.69	0
   0.70	0
   0.72	0
   0.73	0
   0.75	0
   0.77	0
   0.78	0
   0.80	0
   0.81	0
   0.83	31.9898
   0.84	0
   0.86	0
   0.88	0
   0.89	0
   0.91	0
   0.92	0
   0.94	0
   0.95	0
   0.97	0
   0.98	0
?	?
