## SPECTRUM TYPE:
Spectroscopic

## DATE:
1/30/2012

## COMMENTS:

## NUMBER OF SPECTRUM:
5

## ELLIPSOMETRIC CONFIGURATION:
-45.00 øModulator
+45.00 øAnalyser

## UNIT:
eV


# SPECTRUM:
1

# START TIME:
13:26:34

# END TIME:
13:37:55

# THETA ANGLE:
0.00 ø

# INCIDENCE ANGLE:
55.00 ø

# ACCUMULATION NUMBER:
1

# ELLIPSOMETRIC CONFIGURATION:
-45.00 øModulator
+45.00 øAnalyser

# INTEGRATION TIME:
500 ms

# FIRST POINT:
0.6000 eV

# LAST POINT:
6.5000 eV

# INCREMENT:
0.0250 eV

# NUMBER OF POINTS:
237

# DATA:
eV Hv S0 Psi Delta Is Ic
0.6 1397 66.275 41.386 12.517 0.21501 -0.12582 
0.625 1200.2 67.205 41.331 12.806 0.21984 -0.12773 
0.65 1200.2 77.663 41.26 13.188 0.22621 -0.13016 
0.675 1200.2 75.09 41.089 13.58 0.23262 -0.13609 
0.7 1098.6 76.078 41.059 13.914 0.2382 -0.13714 
0.725 997 70.154 40.955 14.29 0.24438 -0.14071 
0.75 997 71.354 40.942 14.653 0.25043 -0.14117 
0.775 895.4 67.014 40.81 14.937 0.25501 -0.14572 
0.8 596.9 64.049 40.546 15.318 0.26099 -0.15486 
0.825 895.4 79.577 40.62 15.667 0.2669 -0.15228 
0.85 895.4 75.4 40.359 15.969 0.27151 -0.16131 
0.875 596.9 62.858 40.257 16.282 0.27653 -0.1648 
0.9 698.5 66.693 40.385 16.714 0.28387 -0.16041 
0.925 800.1 65.191 40.105 16.988 0.28792 -0.17005 
0.95 901.7 74.991 40.209 17.363 0.29426 -0.16645 
0.975 603.3 64.984 40.084 17.743 0.30027 -0.17076 
1 901.7 74.452 39.889 18.002 0.30415 -0.17746 
1.025 901.7 78.083 39.857 18.357 0.30987 -0.17855 
1.05 527.1 60.849 39.69 18.65 0.31432 -0.18428 
1.075 825.5 62.047 39.67 19.092 0.32145 -0.18498 
1.1 825.5 69.358 39.64 19.374 0.32595 -0.18601 
1.125 825.5 70.397 39.545 19.765 0.33205 -0.18928 
1.15 723.9 63.349 39.363 20.053 0.33627 -0.1955 
1.175 723.9 68.017 39.305 20.42 0.34202 -0.19749 
1.2 825.5 70.972 39.204 20.789 0.34768 -0.20095 
1.225 552.5 60.289 39.124 21.107 0.35256 -0.20369 
1.25 387.4 60.707 38.953 21.367 0.35626 -0.20952 
1.275 685.8 75.461 38.855 21.654 0.36054 -0.21287 
1.3 603.3 62.041 38.761 22.027 0.36618 -0.21607 
1.325 800.1 70.298 38.721 22.342 0.37104 -0.21741 
1.35 501.7 73.387 38.498 22.599 0.37442 -0.22502 
1.375 901.7 78.715 38.451 22.894 0.37891 -0.22662 
1.4 603.3 66.841 38.322 23.244 0.38398 -0.23101 
1.425 1403.4 70.071 38.218 23.458 0.38698 -0.23453 
1.45 2305.1 61.585 38.111 23.824 0.3923 -0.23816 
1.475 641 69.216 37.953 24.1 0.39604 -0.24351 
1.5 485 63.074 37.948 24.318 0.39939 -0.24368 
1.525 590 75.319 37.79 24.57 0.40271 -0.24901 
1.55 529 64.016 37.661 24.813 0.40596 -0.25339 
1.575 572 65.468 37.594 25.103 0.41015 -0.25564 
1.6 572 74.496 37.559 25.352 0.41381 -0.25683 
1.625 528 72.92 37.423 25.628 0.41748 -0.26142 
1.65 528 66.723 37.33 25.797 0.41968 -0.26456 
1.675 528 79.362 37.161 26.1 0.42357 -0.27022 
1.7 510 70.457 37.086 26.38 0.42748 -0.27275 
1.725 497 67.709 37.003 26.598 0.43039 -0.27555 
1.75 497 77.003 36.858 26.831 0.43326 -0.28039 
1.775 481 69.887 36.788 27.011 0.43563 -0.28276 
1.8 466 70.072 36.637 27.297 0.43919 -0.28779 
1.825 466 76.648 36.532 27.509 0.44185 -0.29131 
1.85 455 71.125 36.442 27.697 0.44421 -0.29431 
1.875 455 77.67 36.327 27.935 0.44716 -0.29814 
1.9 441 70.63 36.236 28.155 0.44995 -0.30118 
1.925 441 77.468 36.108 28.327 0.45183 -0.30542 
1.95 429 69.622 36.009 28.479 0.45354 -0.30873 
1.975 429 76.972 35.915 28.724 0.45663 -0.31183 
2 420 71.089 35.839 28.92 0.45907 -0.31435 
2.025 420 73.589 35.726 29.127 0.46147 -0.31808 
2.05 420 72.814 35.643 29.345 0.46415 -0.32084 
2.075 408 71.492 35.54 29.544 0.46645 -0.32425 
2.1 408 75.386 35.425 29.768 0.46901 -0.32804 
2.125 408 78.592 35.336 29.97 0.47139 -0.33099 
2.15 399 69.494 35.247 30.148 0.4734 -0.33392 
2.175 399 72.279 35.163 30.292 0.47497 -0.33667 
2.2 399 74.47 35.039 30.574 0.47822 -0.34073 
2.225 399 77.03 34.925 30.805 0.48077 -0.34447 
2.25 399 79.537 34.815 31.073 0.48385 -0.34809 
2.275 391 69.454 34.725 31.308 0.48657 -0.35102 
2.3 391 70.754 34.581 31.516 0.48854 -0.35573 
2.325 391 72.305 34.437 31.788 0.49137 -0.36043 
2.35 391 74.11 34.297 31.972 0.49298 -0.36497 
2.375 391 75.013 34.142 32.186 0.49486 -0.37002 
2.4 391 76.464 33.943 32.323 0.49535 -0.37644 
2.425 384 69.431 33.745 32.456 0.49577 -0.38285 
2.45 377 68.732 33.544 32.509 0.49503 -0.38931 
2.475 377 68.354 33.349 32.474 0.49313 -0.39558 
2.5 394 67.629 33.237 32.298 0.48991 -0.39915 
2.525 394 67.69 33.103 32.102 0.48625 -0.40346 
2.55 394 66.55 33.007 31.932 0.48323 -0.40652 
2.575 394 70.51 32.918 31.746 0.48005 -0.40936 
2.6 394 66.14 32.847 31.58 0.47726 -0.41161 
2.625 394 78.908 32.8 31.485 0.47563 -0.4131 
2.65 384 67.892 32.799 31.41 0.4746 -0.41313 
2.675 392 69.279 32.802 31.388 0.47432 -0.41305 
2.7 392 63.504 32.811 31.383 0.47433 -0.41277 
2.725 392 59.739 32.762 31.367 0.47374 -0.4143 
2.75 392 62.72 32.75 31.396 0.47404 -0.4147 
2.775 405 69.277 32.72 31.426 0.47423 -0.41564 
2.8 405 68.279 32.709 31.475 0.4748 -0.416 
2.825 405 67.579 32.687 31.485 0.47478 -0.41671 
2.85 405 64.236 32.648 31.591 0.47591 -0.41793 
2.875 405 62.388 32.601 31.652 0.47637 -0.41941 
2.9 405 60.995 32.6 31.73 0.47741 -0.41947 
2.925 405 59.876 32.567 31.783 0.47788 -0.42048 
2.95 405 59.563 32.516 31.839 0.47823 -0.42212 
2.975 416 68.555 32.473 31.935 0.47919 -0.42347 
3 416 66.453 32.412 31.953 0.47895 -0.4254 
3.025 416 63.729 32.384 32.04 0.47989 -0.42627 
3.05 416 61.096 32.342 32.046 0.47964 -0.42761 
3.075 425 68.101 32.284 32.155 0.48063 -0.42945 
3.1 414 71.067 32.219 32.171 0.48033 -0.43149 
3.125 414 68.645 32.143 32.189 0.47996 -0.43387 
3.15 414 64.773 32.088 32.193 0.47957 -0.43561 
3.175 414 60.711 32.027 32.194 0.47909 -0.43752 
3.2 424 68.694 31.949 32.199 0.47852 -0.43996 
3.225 424 65.53 31.886 32.124 0.47701 -0.44193 
3.25 424 62.585 31.805 32.049 0.47535 -0.44447 
3.275 434 69.364 31.742 31.817 0.47175 -0.44645 
3.3 434 64.162 31.664 31.649 0.46888 -0.44887 
3.325 443 68.075 31.604 31.353 0.46446 -0.45076 
3.35 443 64.383 31.601 31.067 0.46062 -0.45085 
3.375 443 63.996 31.603 30.666 0.45528 -0.45078 
3.4 443 63.718 31.711 30.345 0.45181 -0.44743 
3.425 443 61.997 31.814 30.106 0.4494 -0.44419 
3.45 443 59.956 31.952 29.891 0.44755 -0.43987 
3.475 452 67.259 32.115 29.741 0.44675 -0.43476 
3.5 452 64.577 32.26 29.641 0.44646 -0.43021 
3.525 452 62.124 32.413 29.576 0.4467 -0.42538 
3.55 452 59.758 32.57 29.483 0.44656 -0.42041 
3.575 462 68.044 32.734 29.45 0.44729 -0.4152 
3.6 462 65.924 32.88 29.422 0.44793 -0.41054 
3.625 462 64.551 33.054 29.402 0.44887 -0.40501 
3.65 462 63.271 33.211 29.495 0.45125 -0.4 
3.675 462 62.541 33.449 29.503 0.45298 -0.39236 
3.7 462 61.84 33.633 29.61 0.4557 -0.38646 
3.725 462 60.934 33.836 29.762 0.45919 -0.37989 
3.75 462 60.007 34.066 29.93 0.46305 -0.37248 
3.775 473 69.495 34.276 30.12 0.46705 -0.36566 
3.8 473 66.969 34.507 30.377 0.47214 -0.35814 
3.825 473 63.754 34.738 30.625 0.47708 -0.3506 
3.85 473 59.616 34.913 31 0.48344 -0.34487 
3.875 486 68.096 35.156 31.278 0.48885 -0.33689 
3.9 486 63.5 35.338 31.753 0.49661 -0.33091 
3.925 486 59.59 35.556 32.246 0.50483 -0.32372 
3.95 499 68.446 35.729 32.691 0.51208 -0.31799 
3.975 499 65.025 35.933 33.174 0.52 -0.31125 
4 499 61.903 36.107 33.703 0.52837 -0.30548 
4.025 509 68.561 36.263 34.216 0.53637 -0.30026 
4.05 509 65.449 36.364 34.847 0.54563 -0.2969 
4.075 509 63.003 36.511 35.345 0.55329 -0.29199 
4.1 509 59.84 36.624 36.049 0.56351 -0.28821 
4.125 522 69.173 36.728 36.758 0.57366 -0.28474 
4.15 522 66.816 36.838 37.446 0.5835 -0.28108 
4.175 522 65.181 36.876 38.14 0.59292 -0.2798 
4.2 522 64.057 36.956 38.813 0.60223 -0.27712 
4.225 522 63.198 37.016 39.644 0.61339 -0.27511 
4.25 522 62.061 36.944 40.492 0.62384 -0.27753 
4.275 522 60.46 36.93 41.326 0.63431 -0.27798 
4.3 522 58.898 36.842 42.376 0.64686 -0.28093 
4.325 522 62.984 36.859 43.106 0.65594 -0.28035 
4.35 522 66.414 36.556 43.749 0.66168 -0.2905 
4.375 522 68.932 36.468 44.357 0.66834 -0.29345 
4.4 522 71.428 36.292 44.809 0.67243 -0.29931 
4.425 522 72.61 36.046 45.195 0.67514 -0.30747 
4.45 522 74.218 35.938 45.586 0.67886 -0.31108 
4.475 522 74.23 35.819 45.979 0.68247 -0.31502 
4.5 522 74.799 35.747 46.261 0.68513 -0.31741 
4.525 522 75.277 35.596 46.694 0.68884 -0.3224 
4.55 522 73.326 35.417 47.039 0.69125 -0.32832 
4.575 522 71.772 35.333 47.354 0.69407 -0.33108 
4.6 522 70.513 35.276 47.7 0.69744 -0.33294 
4.625 522 68.888 35.15 47.932 0.6989 -0.3371 
4.65 522 65.941 35.102 48.32 0.70274 -0.33867 
4.675 522 64.105 34.953 48.639 0.70487 -0.34356 
4.7 522 62.646 34.821 49.029 0.70788 -0.34787 
4.725 522 60.042 34.793 49.185 0.7093 -0.3488 
4.75 534 67.631 34.662 49.56 0.71207 -0.35307 
4.775 534 64.957 34.542 49.844 0.71393 -0.357 
4.8 534 61.387 34.49 50.281 0.718 -0.35868 
4.825 545 68.872 34.385 50.543 0.7197 -0.36212 
4.85 545 65.208 34.244 50.774 0.7207 -0.3667 
4.875 545 61.925 34.19 51.262 0.72514 -0.36845 
4.9 557 68.858 33.997 51.634 0.72694 -0.37469 
4.925 557 66.015 33.888 51.769 0.72717 -0.37822 
4.95 557 63.076 33.759 52.091 0.72902 -0.3824 
4.975 568 69.877 33.606 52.26 0.72907 -0.38733 
5 568 66.9 33.609 52.604 0.73248 -0.38721 
5.025 568 63.285 33.482 52.953 0.73449 -0.39131 
5.05 568 59.53 33.397 53.102 0.735 -0.39404 
5.075 582 67.448 33.255 53.273 0.73507 -0.39859 
5.1 582 64.464 33.177 53.557 0.73691 -0.40108 
5.125 582 58.984 33.053 53.807 0.73787 -0.40504 
5.15 599 69.169 32.861 54.137 0.73875 -0.41117 
5.175 599 63.899 32.83 54.387 0.74071 -0.41215 
5.2 599 59.364 32.693 54.646 0.74148 -0.41651 
5.225 618 70.595 32.561 54.898 0.74222 -0.42067 
5.25 618 65.344 32.501 55.029 0.74268 -0.42259 
5.275 618 61.42 32.401 55.389 0.7447 -0.42575 
5.3 631 66.535 32.191 55.729 0.74514 -0.43238 
5.325 631 61.766 32.149 55.893 0.74608 -0.43368 
5.35 631 57.664 31.993 56.017 0.74519 -0.4386 
5.375 649 66.305 31.89 56.163 0.74515 -0.44183 
5.4 649 62.449 31.814 56.389 0.74615 -0.44419 
5.425 649 57.919 31.671 56.556 0.74573 -0.44866 
5.45 669 68.052 31.526 56.802 0.74592 -0.4532 
5.475 669 63.184 31.363 57.004 0.74547 -0.45823 
5.5 684 69.157 31.327 57.141 0.74613 -0.45937 
5.525 684 64.335 31.21 57.344 0.74625 -0.463 
5.55 697 68.959 31.133 57.757 0.74863 -0.46536 
5.575 697 63.013 30.891 57.616 0.74412 -0.47283 
5.6 697 58.258 30.971 57.455 0.7439 -0.47036 
5.625 715 64.594 30.708 57.667 0.74197 -0.47846 
5.65 732 70.836 30.571 57.992 0.74267 -0.48265 
5.675 732 65.043 30.355 58.309 0.74211 -0.48923 
5.7 749 69.694 30.425 58.096 0.74142 -0.4871 
5.725 749 63.684 30.158 58.575 0.74134 -0.49522 
5.75 763 66.483 30.133 58.491 0.7403 -0.49599 
5.775 779 69.912 30.035 59.088 0.74353 -0.49894 
5.8 779 63.692 29.693 58.629 0.7348 -0.50926 
5.825 780 58.259 29.471 59.002 0.73431 -0.51591 
5.85 780 51.858 29.911 57.738 0.73101 -0.50268 
5.875 780 46.692 29.677 58.463 0.73326 -0.50973 
5.9 780 42.336 29.335 59.127 0.73316 -0.51996 
5.925 780 37.883 29.266 59.051 0.7315 -0.52202 
5.95 780 33.538 28.953 59.565 0.73044 -0.53132 
5.975 780 29.882 28.959 58.119 0.71948 -0.53113 
6 780 26.954 28.863 58.299 0.71937 -0.53396 
6.025 780 23.918 28.664 59.116 0.72242 -0.53982 
6.05 780 21.809 28.587 60.083 0.72835 -0.54209 
6.075 780 19.523 28.318 59.52 0.71978 -0.54996 
6.1 780 17.818 28.568 57.458 0.7081 -0.54263 
6.125 780 15.862 28.954 57.659 0.71578 -0.53129 
6.15 780 14.418 29.028 57.794 0.71801 -0.52909 
6.175 780 13.274 28.369 57.979 0.70896 -0.54846 
6.2 780 12.265 27.939 58.19 0.7035 -0.56096 
6.225 780 11.12 28.588 57.35 0.70754 -0.54207 
6.25 780 10.235 28.739 56.666 0.70447 -0.53762 
6.275 780 9.217 28.619 56.347 0.7 -0.54115 
6.3 780 8.496 27.807 58.358 0.70257 -0.56477 
6.325 780 7.675 28.071 57.251 0.69842 -0.55715 
6.35 780 6.974 28.659 57.631 0.7109 -0.53999 
6.375 780 6.271 28.411 56.17 0.69527 -0.54723 
6.4 780 5.567 28.344 57.655 0.70602 -0.54921 
6.425 780 5.001 29.33 55.869 0.70699 -0.52011 
6.45 780 4.484 29.398 54.723 0.69827 -0.51808 
6.475 780 4.011 28.508 57.754 0.70945 -0.54439 
6.5 780 3.584 29.738 58.089 0.73123 -0.50791 

# MINIMA:
0.600 377.0 3.584 27.807 12.517 0.21501 -0.56477

# MAXIMA:
6.500 2305.1 79.577 41.386 60.083 0.74863 -0.12582

# PEAKS:

# END SPECTRUM


# SPECTRUM:
2

# START TIME:
13:38:38

# END TIME:
13:49:01

# THETA ANGLE:
0.00 ø

# INCIDENCE ANGLE:
60.00 ø

# ACCUMULATION NUMBER:
1

# ELLIPSOMETRIC CONFIGURATION:
-45.00 øModulator
+45.00 øAnalyser

# INTEGRATION TIME:
500 ms

# FIRST POINT:
0.6000 eV

# LAST POINT:
6.5000 eV

# INCREMENT:
0.0250 eV

# NUMBER OF POINTS:
237

# DATA:
eV Hv S0 Psi Delta Is Ic
0.6 1397 70.78 40.451 16.019 0.27248 -0.15814 
0.625 1200.2 71.049 40.428 16.416 0.27902 -0.15891 
0.65 1200.2 79.453 40.082 16.81 0.28495 -0.17083 
0.675 1200.2 76.355 40.096 17.303 0.29308 -0.17034 
0.7 1098.6 75.954 39.985 17.746 0.30015 -0.17417 
0.725 997 68.725 39.861 18.266 0.3084 -0.17843 
0.75 997 69.658 39.817 18.72 0.31571 -0.17994 
0.775 895.4 65.253 39.594 19.061 0.32078 -0.18758 
0.8 603.3 63.888 39.576 19.623 0.32983 -0.18821 
0.825 901.7 77.689 39.491 20.049 0.33651 -0.1911 
0.85 901.7 72.987 39.183 20.427 0.34184 -0.20167 
0.875 603.3 63.194 39.191 20.843 0.34852 -0.20138 
0.9 704.9 66.686 39.162 21.408 0.35745 -0.20239 
0.925 806.5 65.758 39.052 21.74 0.36245 -0.20614 
0.95 908.1 76.747 38.893 22.186 0.36906 -0.21156 
0.975 609.6 64.994 38.796 22.678 0.37655 -0.21487 
1 908.1 77.151 38.753 23.066 0.38252 -0.21634 
1.025 806.5 61.8 38.569 23.481 0.38845 -0.22259 
1.05 527.1 61.305 38.452 23.917 0.39486 -0.2266 
1.075 825.5 63.683 38.417 24.39 0.40208 -0.22779 
1.1 825.5 71.04 38.206 24.816 0.40795 -0.23495 
1.125 825.5 71.883 38.126 25.189 0.41341 -0.23766 
1.15 723.9 65.174 37.93 25.661 0.41993 -0.24428 
1.175 723.9 69.875 37.869 26.114 0.4266 -0.24635 
1.2 825.5 73.128 37.771 26.462 0.43149 -0.24967 
1.225 552.5 62.024 37.716 27.006 0.43948 -0.25154 
1.25 387.4 62.999 37.515 27.303 0.44313 -0.2583 
1.275 685.8 78.232 37.381 27.771 0.44955 -0.26284 
1.3 590.6 61.122 37.345 28.172 0.45536 -0.26403 
1.325 787.4 70.975 37.201 28.502 0.45961 -0.26889 
1.35 489 72.257 37.013 28.882 0.46436 -0.2752 
1.375 889 80.915 36.972 29.322 0.47061 -0.27656 
1.4 590.6 66.867 36.777 29.645 0.47439 -0.2831 
1.425 1390.7 73.389 36.744 30.038 0.47993 -0.28421 
1.45 2190.8 61.75 36.551 30.462 0.48508 -0.29067 
1.475 780 0 45 0 0.489478 -0.294375 
1.5 485 67.123 36.343 31.115 0.49334 -0.29762 
1.525 584 74.74 36.19 31.422 0.49688 -0.3027 
1.55 530 70.843 36.121 31.759 0.50127 -0.305 
1.575 565 64.667 36.056 32.19 0.50698 -0.30715 
1.6 565 73.639 35.881 32.533 0.51077 -0.31297 
1.625 520 70.466 35.779 32.805 0.51396 -0.31633 
1.65 520 63.481 35.611 33.12 0.51731 -0.32189 
1.675 520 76.007 35.513 33.495 0.52188 -0.32515 
1.7 504 69.295 35.362 33.791 0.52498 -0.33013 
1.725 493 68.494 35.277 34.119 0.52891 -0.33293 
1.75 493 77.746 35.158 34.407 0.53205 -0.33682 
1.775 477 70.294 35.014 34.702 0.53507 -0.34155 
1.8 463 71.086 34.889 35.058 0.53901 -0.34565 
1.825 463 76.736 34.723 35.379 0.54213 -0.35107 
1.85 451 70.349 34.667 35.658 0.54543 -0.35293 
1.875 451 76.791 34.506 35.923 0.54777 -0.35819 
1.9 437 69.548 34.394 36.237 0.55108 -0.36181 
1.925 437 76.165 34.26 36.494 0.55343 -0.36618 
1.95 426 69.129 34.191 36.73 0.55597 -0.36841 
1.975 426 76.625 34.039 37.005 0.55837 -0.37334 
2 416 69.348 33.948 37.317 0.56168 -0.37628 
2.025 416 72.359 33.838 37.595 0.56435 -0.37985 
2.05 416 71.604 33.715 37.879 0.56697 -0.3838 
2.075 405 70.509 33.616 38.169 0.56984 -0.38699 
2.1 405 75.025 33.494 38.452 0.57238 -0.39091 
2.125 405 78.592 33.369 38.77 0.5753 -0.39492 
2.15 397 70.676 33.288 38.963 0.57699 -0.39754 
2.175 397 73.746 33.154 39.284 0.57981 -0.40181 
2.2 397 76.252 33.029 39.576 0.58229 -0.40581 
2.225 397 78.695 32.914 39.935 0.58563 -0.40946 
2.25 388 68.747 32.818 40.216 0.58817 -0.41253 
2.275 388 70.294 32.673 40.602 0.59148 -0.41715 
2.3 388 71.212 32.522 40.998 0.59477 -0.42194 
2.325 388 73.202 32.364 41.222 0.59591 -0.4269 
2.35 388 74.088 32.197 41.571 0.59837 -0.43218 
2.375 388 75.689 32.022 41.794 0.59922 -0.43769 
2.4 388 77.374 31.776 42.166 0.60102 -0.4454 
2.425 381 70.448 31.561 42.252 0.59976 -0.45209 
2.45 374 70.097 31.331 42.364 0.59858 -0.45925 
2.475 374 69.836 31.084 42.447 0.59683 -0.46689 
2.5 394 68.15 30.932 42.195 0.5923 -0.47156 
2.525 394 68.015 30.767 42.011 0.58836 -0.47663 
2.55 394 67.029 30.623 41.799 0.58432 -0.48106 
2.575 394 70.817 30.534 41.649 0.58162 -0.48378 
2.6 394 66.593 30.444 41.436 0.57818 -0.48651 
2.625 394 79.4 30.383 41.368 0.57671 -0.48839 
2.65 384 68.135 30.395 41.301 0.57608 -0.48802 
2.675 392 69.487 30.349 41.263 0.57513 -0.48941 
2.7 392 63.643 30.346 41.253 0.57498 -0.4895 
2.725 392 60.091 30.319 41.216 0.57426 -0.49032 
2.75 392 62.709 30.307 41.327 0.57539 -0.49068 
2.775 404 68.282 30.265 41.374 0.57545 -0.49198 
2.8 404 67.595 30.245 41.457 0.57617 -0.49258 
2.825 404 67.107 30.219 41.519 0.57658 -0.49337 
2.85 404 63.767 30.184 41.635 0.57749 -0.49444 
2.875 404 62.173 30.136 41.704 0.57772 -0.49587 
2.9 404 60.554 30.12 41.833 0.579 -0.49636 
2.925 404 59.405 30.076 41.93 0.57958 -0.49771 
2.95 404 59.21 30.042 42.02 0.5802 -0.49873 
2.975 415 68.063 29.962 42.182 0.58107 -0.50116 
3 415 66.269 29.899 42.275 0.58138 -0.50305 
3.025 415 63.737 29.857 42.392 0.58218 -0.50433 
3.05 415 60.756 29.813 42.441 0.58221 -0.50565 
3.075 424 68.472 29.739 42.551 0.58254 -0.50788 
3.1 412 70.176 29.662 42.635 0.58254 -0.51019 
3.125 412 68.077 29.591 42.73 0.58273 -0.51232 
3.15 412 64.543 29.502 42.786 0.58227 -0.51497 
3.175 412 60.71 29.451 42.835 0.58218 -0.51651 
3.2 421 67.295 29.347 42.895 0.58156 -0.5196 
3.225 421 64.382 29.271 42.865 0.58029 -0.52188 
3.25 421 61.139 29.154 42.827 0.57842 -0.52535 
3.275 430 67.117 29.021 42.702 0.5754 -0.52929 
3.3 430 62.391 28.918 42.53 0.57224 -0.53234 
3.325 441 68.233 28.816 42.265 0.56807 -0.53534 
3.35 441 64.21 28.766 41.837 0.56275 -0.53684 
3.375 441 63.978 28.739 41.479 0.55848 -0.53762 
3.4 441 63.621 28.771 41.077 0.55443 -0.53668 
3.425 441 62.144 28.852 40.783 0.55214 -0.5343 
3.45 441 60.318 28.945 40.471 0.54978 -0.53154 
3.475 451 68.536 29.034 40.324 0.54919 -0.52891 
3.5 451 65.841 29.178 40.065 0.54796 -0.52465 
3.525 451 63.107 29.294 39.908 0.54753 -0.52119 
3.55 451 60.967 29.439 39.657 0.54634 -0.51686 
3.575 460 68.067 29.542 39.615 0.54703 -0.51377 
3.6 460 66.263 29.702 39.48 0.54729 -0.50897 
3.625 460 65.151 29.861 39.356 0.54764 -0.5042 
3.65 460 63.763 30.026 39.293 0.54873 -0.49921 
3.675 460 62.623 30.249 39.207 0.55016 -0.49245 
3.7 460 61.964 30.446 39.234 0.55261 -0.48645 
3.725 460 61.269 30.659 39.183 0.55428 -0.47995 
3.75 470 70.255 30.876 39.287 0.5578 -0.47328 
3.775 470 68.537 31.122 39.349 0.56108 -0.46571 
3.8 470 65.617 31.353 39.482 0.56504 -0.45856 
3.825 470 62.627 31.59 39.587 0.5687 -0.45118 
3.85 480 69.154 31.825 39.857 0.57429 -0.44386 
3.875 480 64.031 32.101 40.002 0.57874 -0.43521 
3.9 480 59.238 32.356 40.365 0.5856 -0.42716 
3.925 492 66.749 32.62 40.724 0.59245 -0.41881 
3.95 492 63.003 32.894 41.132 0.59993 -0.41012 
3.975 492 59.461 33.174 41.435 0.60618 -0.40119 
4 505 68.853 33.374 41.955 0.61425 -0.39478 
4.025 505 65.449 33.661 42.311 0.62111 -0.38555 
4.05 505 62.569 33.883 42.945 0.63064 -0.37838 
4.075 505 60.21 34.14 43.359 0.63783 -0.37006 
4.1 517 68.297 34.346 44.181 0.64928 -0.3634 
4.125 517 65.11 34.553 44.764 0.65788 -0.35665 
4.15 517 62.751 34.782 45.458 0.66788 -0.34916 
4.175 517 61.418 34.987 46.225 0.67841 -0.34245 
4.2 517 60.52 35.209 47.008 0.68914 -0.33516 
4.225 517 59.904 35.416 47.925 0.70112 -0.32833 
4.25 529 70.056 35.556 48.906 0.71306 -0.32371 
4.275 529 68.627 35.634 50.141 0.72696 -0.32115 
4.3 529 66.289 35.832 51.412 0.74197 -0.31457 
4.325 529 71.121 35.758 52.448 0.7519 -0.31702 
4.35 529 75.835 35.657 53.481 0.7613 -0.32039 
4.375 529 79.515 35.499 54.453 0.7693 -0.32561 
4.4 515 67.706 35.352 55.188 0.77491 -0.33044 
4.425 515 69.606 35.19 55.863 0.77964 -0.33579 
4.45 515 71.627 35.007 56.441 0.78313 -0.34179 
4.475 515 72.576 34.864 57.06 0.78726 -0.34648 
4.5 515 73.73 34.636 57.442 0.78829 -0.35393 
4.525 515 73.405 34.546 58.025 0.79243 -0.35685 
4.55 515 72.788 34.377 58.526 0.79491 -0.36236 
4.575 515 71.679 34.197 58.947 0.7965 -0.36824 
4.6 515 70.262 34.118 59.331 0.79882 -0.37077 
4.625 515 68.548 34.018 59.734 0.80101 -0.37401 
4.65 515 67.786 33.905 60.141 0.80302 -0.37768 
4.675 515 65.06 33.787 60.6 0.80533 -0.38148 
4.7 515 62.986 33.685 60.916 0.80662 -0.38479 
4.725 515 60.778 33.625 61.258 0.80858 -0.3867 
4.75 526 68.965 33.491 61.556 0.80928 -0.39102 
4.775 526 65.279 33.411 62.009 0.81175 -0.3936 
4.8 526 62.58 33.217 62.52 0.81318 -0.39982 
4.825 526 60.213 33.194 62.856 0.81536 -0.40054 
4.85 538 67.693 33.096 63.028 0.81539 -0.40367 
4.875 538 64.577 32.952 63.624 0.81784 -0.40826 
4.9 538 61.487 32.931 64.064 0.82065 -0.40894 
4.925 549 67.994 32.778 64.483 0.82157 -0.41381 
4.95 549 64.943 32.683 64.693 0.82175 -0.41682 
4.975 549 62.553 32.603 64.989 0.82269 -0.41937 
5 561 69.616 32.48 65.493 0.82439 -0.42325 
5.025 561 65.949 32.289 65.944 0.82473 -0.42929 
5.05 561 62.367 32.259 66.101 0.82533 -0.43022 
5.075 573 68.717 32.11 66.473 0.82562 -0.43491 
5.1 573 64.939 32.05 66.742 0.82645 -0.43681 
5.125 573 60.685 31.969 66.946 0.82658 -0.43933 
5.15 589 69.232 31.938 67.376 0.82875 -0.44033 
5.175 589 65.201 31.773 67.73 0.8285 -0.44549 
5.2 589 60.661 31.653 67.985 0.82827 -0.44922 
5.225 605 68.95 31.592 68.485 0.83028 -0.45112 
5.25 605 64.65 31.467 68.959 0.83111 -0.45502 
5.275 617 70.141 31.345 69.184 0.83053 -0.45882 
5.3 617 65.547 31.172 69.539 0.82987 -0.46415 
5.325 617 61.282 31.198 69.633 0.83077 -0.46336 
5.35 632 68.268 31.038 70.176 0.8312 -0.46831 
5.375 632 63.947 31.029 69.685 0.82848 -0.46857 
5.4 644 68.645 30.901 70.257 0.82951 -0.47252 
5.425 644 63.65 30.894 70.494 0.83062 -0.47275 
5.45 659 71.289 30.734 70.719 0.82927 -0.47766 
5.475 659 66.326 30.527 71.443 0.82958 -0.48398 
5.5 659 61.634 30.491 71.791 0.83068 -0.48507 
5.525 674 67.358 30.332 71.845 0.82836 -0.48994 
5.55 674 62.587 30.199 72.064 0.82722 -0.49397 
5.575 692 70.4 30.235 72.196 0.82842 -0.49288 
5.6 692 65.236 29.856 72.5 0.82354 -0.50434 
5.625 707 69.662 29.686 72.321 0.81985 -0.50946 
5.65 707 64.119 29.627 73.125 0.82244 -0.51122 
5.675 721 67.671 29.704 73.126 0.82375 -0.50892 
5.7 721 62.832 29.363 73.849 0.82096 -0.51913 
5.725 740 68.75 29.528 73.1 0.82063 -0.5142 
5.75 740 62.71 29.223 74.2 0.81996 -0.52329 
5.775 758 68.185 29.212 73.42 0.81652 -0.52364 
5.8 772 70.199 28.877 75.263 0.81794 -0.53356 
5.825 772 63.279 28.988 73.887 0.81451 -0.53028 
5.85 780 62.275 28.748 74.531 0.8128 -0.53737 
5.875 780 55.259 29.139 72.995 0.81342 -0.5258 
5.9 780 49.238 28.601 74.55 0.8102 -0.54169 
5.925 780 44.264 28.124 76.173 0.80735 -0.55561 
5.95 780 39.527 28.203 76.702 0.81064 -0.55331 
5.975 780 34.885 28.344 73.457 0.80109 -0.54921 
6 780 31.535 28.136 75.83 0.80637 -0.55526 
6.025 780 28.293 28.534 72.206 0.79917 -0.54363 
6.05 780 25.222 28.147 73.374 0.79711 -0.55494 
6.075 780 23.005 27.66 74.26 0.7915 -0.569 
6.1 780 20.813 27.797 73.544 0.79126 -0.56506 
6.125 780 18.778 27.905 72.462 0.78873 -0.56194 
6.15 780 17.028 27.72 72.134 0.78383 -0.56726 
6.175 780 15.485 27.768 73.215 0.78936 -0.56588 
6.2 780 14.152 27.383 73.53 0.78329 -0.57691 
6.225 780 12.916 27.285 75.418 0.78858 -0.5797 
6.25 780 11.797 27.311 75.664 0.78995 -0.57898 
6.275 780 10.88 27.356 73.223 0.78153 -0.57767 
6.3 780 9.928 27.071 74.187 0.7798 -0.58577 
6.325 780 9.054 27.134 74.71 0.78303 -0.58399 
6.35 780 8.167 27.592 72.151 0.78147 -0.58659 
6.375 780 7.272 26.971 76.142 0.78489 -0.5886 
6.4 780 6.621 27.097 75.152 0.78392 -0.58505 
6.425 780 5.798 28.424 70.327 0.78835 -0.5815 
6.45 780 5.162 27.167 76.499 0.78997 -0.58307 
6.475 780 4.664 26.748 78.71 0.78826 -0.59488 
6.5 780 4.051 28.23 75.236 0.80598 -0.55252 

# MINIMA:
0.600 374.0 0.000 26.748 0.000 0.00000 -0.59488

# MAXIMA:
6.500 2190.8 80.915 45.000 78.710 0.83120 0.00000

# PEAKS:

# END SPECTRUM


# SPECTRUM:
3

# START TIME:
13:49:44

# END TIME:
14:00:06

# THETA ANGLE:
0.00 ø

# INCIDENCE ANGLE:
65.00 ø

# ACCUMULATION NUMBER:
1

# ELLIPSOMETRIC CONFIGURATION:
-45.00 øModulator
+45.00 øAnalyser

# INTEGRATION TIME:
500 ms

# FIRST POINT:
0.6000 eV

# LAST POINT:
6.5000 eV

# INCREMENT:
0.0250 eV

# NUMBER OF POINTS:
237

# DATA:
eV Hv S0 Psi Delta Is Ic
0.6 1301.8 61.737 39.092 20.642 0.34506 -0.20476 
0.625 1200.2 71.359 39.109 21.254 0.35486 -0.20419 
0.65 1098.6 66.325 38.759 21.836 0.36316 -0.21612 
0.675 1098.6 63.131 38.706 22.364 0.37135 -0.21795 
0.7 1098.6 76.566 38.739 23.135 0.38355 -0.2168 
0.725 997 68.955 38.479 23.647 0.39075 -0.22565 
0.75 997 69.41 38.392 24.214 0.39928 -0.22862 
0.775 895.4 64.542 38.222 24.783 0.4075 -0.2344 
0.8 603.3 62.784 37.952 25.268 0.414 -0.24353 
0.825 901.7 75.346 37.928 25.913 0.42376 -0.24436 
0.85 901.7 70.384 37.797 26.414 0.43086 -0.24879 
0.875 609.6 61.461 37.858 27.107 0.44156 -0.24672 
0.9 711.2 63.641 37.654 27.59 0.448 -0.25364 
0.925 812.8 62.375 37.447 28.105 0.45481 -0.26062 
0.95 914.4 73.001 37.308 28.721 0.46333 -0.26529 
0.975 616 63.27 37.209 29.387 0.47268 -0.26862 
1 914.4 73.593 37.128 29.847 0.47902 -0.27135 
1.025 914.4 77.881 36.922 30.314 0.48481 -0.27824 
1.05 539.8 61.256 36.747 30.888 0.4922 -0.28412 
1.075 838.2 63.024 36.768 31.58 0.50221 -0.28342 
1.1 838.2 70.578 36.549 32.015 0.50723 -0.29075 
1.125 838.2 72.475 36.485 32.652 0.51588 -0.29286 
1.15 736.6 65.447 36.32 33.209 0.52275 -0.29839 
1.175 736.6 70.903 36.2 33.72 0.52914 -0.30238 
1.2 838.2 73.92 36.04 34.261 0.53565 -0.30769 
1.225 558.8 60.962 36.011 34.877 0.5439 -0.30864 
1.25 387.4 61.14 35.786 35.259 0.54767 -0.31611 
1.275 685.8 74.917 35.559 35.851 0.55416 -0.32363 
1.3 603.3 61.569 35.474 36.437 0.5614 -0.32644 
1.325 800.1 70.034 35.344 36.838 0.56582 -0.33071 
1.35 501.7 74.356 35.216 37.346 0.57158 -0.33493 
1.375 901.7 79.664 35.133 37.769 0.57651 -0.33764 
1.4 603.3 67.87 34.966 38.389 0.58329 -0.34315 
1.425 1403.4 72.179 34.815 38.801 0.58744 -0.34806 
1.45 2305.1 62.839 34.64 39.481 0.59469 -0.3538 
1.475 780 0 45 0 0.599683 -0.355402 
1.5 484 68.102 34.526 40.245 0.60336 -0.35752 
1.525 568 62.612 34.302 40.66 0.60666 -0.36481 
1.55 528 71.694 34.206 41.006 0.61011 -0.36791 
1.575 565 65.998 34.075 41.536 0.61546 -0.37218 
1.6 565 74.835 33.963 41.931 0.61926 -0.37579 
1.625 521 71.958 33.726 42.383 0.62255 -0.38346 
1.65 521 65.923 33.646 42.85 0.62737 -0.38602 
1.675 521 78.891 33.529 43.291 0.63146 -0.3898 
1.7 505 71.491 33.361 43.757 0.63531 -0.39518 
1.725 493 69.742 33.223 44.127 0.63825 -0.3996 
1.75 493 78.461 33.14 44.568 0.64248 -0.40225 
1.775 476 69.759 32.994 44.995 0.64585 -0.40693 
1.8 461 69.872 32.887 45.393 0.64924 -0.41033 
1.825 461 75.475 32.741 45.854 0.65287 -0.41498 
1.85 449 69.314 32.62 46.203 0.65545 -0.41881 
1.875 449 74.683 32.462 46.605 0.65814 -0.42383 
1.9 438 70.544 32.378 46.903 0.66047 -0.42646 
1.925 438 76.794 32.225 47.378 0.66388 -0.43131 
1.95 427 70.185 32.123 47.648 0.6656 -0.43452 
1.975 427 77.307 31.969 48.066 0.66828 -0.43933 
2 417 69.829 31.876 48.53 0.67204 -0.44227 
2.025 417 72.068 31.75 48.825 0.67362 -0.44619 
2.05 417 71.388 31.642 49.249 0.67668 -0.44956 
2.075 406 71.027 31.535 49.506 0.67801 -0.4529 
2.1 406 74.906 31.408 49.991 0.68133 -0.45686 
2.125 406 78.675 31.285 50.357 0.68346 -0.46067 
2.15 398 70.526 31.183 50.717 0.68573 -0.46383 
2.175 398 73.286 31.052 51.168 0.68847 -0.46788 
2.2 398 75.652 30.95 51.598 0.6913 -0.47102 
2.225 398 78.566 30.803 52.125 0.6944 -0.47552 
2.25 390 69.869 30.695 52.424 0.69577 -0.47884 
2.275 390 71.806 30.578 52.92 0.69882 -0.48244 
2.3 390 73.268 30.423 53.32 0.70038 -0.48716 
2.325 390 75.166 30.222 53.832 0.70225 -0.49327 
2.35 390 76.612 30.037 54.282 0.70365 -0.49889 
2.375 390 78.077 29.841 54.775 0.70518 -0.50479 
2.4 390 79.554 29.609 55.149 0.70503 -0.51177 
2.425 381 70.158 29.36 55.524 0.70454 -0.51922 
2.45 373 68.213 29.085 55.794 0.70266 -0.52739 
2.475 373 68.387 28.835 55.76 0.69853 -0.53481 
2.5 398 68.995 28.656 55.382 0.69262 -0.54008 
2.525 398 69.212 28.397 55.251 0.68749 -0.54765 
2.55 398 67.762 28.234 55.092 0.68359 -0.5524 
2.575 398 71.728 28.153 54.958 0.68119 -0.55476 
2.6 398 67.582 28.029 54.739 0.67739 -0.55835 
2.625 389 68.074 27.966 54.689 0.67598 -0.56017 
2.65 389 70.541 27.938 54.63 0.67504 -0.56098 
2.675 389 61.953 27.906 54.585 0.67414 -0.56192 
2.7 399 68.688 27.874 54.65 0.67418 -0.56282 
2.725 399 64.356 27.833 54.611 0.67319 -0.56402 
2.75 399 67.43 27.823 54.782 0.67445 -0.56431 
2.775 408 69.568 27.801 54.841 0.67459 -0.56495 
2.8 408 68.58 27.766 54.975 0.67514 -0.56594 
2.825 408 67.827 27.762 55.017 0.67542 -0.56606 
2.85 408 64.235 27.71 55.233 0.67635 -0.56755 
2.875 408 63.161 27.685 55.339 0.67681 -0.56827 
2.9 408 61.804 27.649 55.526 0.67774 -0.56932 
2.925 408 60.859 27.63 55.677 0.67866 -0.56986 
2.95 408 60.671 27.579 55.82 0.67898 -0.57131 
2.975 418 68.688 27.485 56.105 0.67971 -0.57399 
3 418 66.724 27.461 56.185 0.67994 -0.57468 
3.025 418 64.455 27.387 56.432 0.68065 -0.57681 
3.05 418 61.41 27.36 56.453 0.68037 -0.57757 
3.075 418 59.054 27.255 56.734 0.68079 -0.58057 
3.1 418 75.394 27.199 56.817 0.68048 -0.58216 
3.125 418 72.862 27.11 57.048 0.68076 -0.58467 
3.15 418 69.048 27.015 57.1 0.67951 -0.58737 
3.175 418 64.898 26.927 57.332 0.67978 -0.58984 
3.2 418 61.493 26.843 57.389 0.67874 -0.59222 
3.225 427 68.869 26.741 57.495 0.67777 -0.59507 
3.25 427 65.363 26.602 57.562 0.67583 -0.59897 
3.275 427 61.449 26.472 57.451 0.6727 -0.60259 
3.3 437 67.479 26.316 57.484 0.67017 -0.60692 
3.325 437 61.415 26.186 57.161 0.66544 -0.61052 
3.35 448 69.412 26.041 56.942 0.66118 -0.61454 
3.375 448 69.002 25.971 56.494 0.65655 -0.61646 
3.4 448 68.661 25.936 56.13 0.65315 -0.61741 
3.425 448 67.208 25.946 55.759 0.65047 -0.61716 
3.45 448 65.177 26.02 55.39 0.64891 -0.61511 
3.475 448 62.527 26.092 55.104 0.64795 -0.61312 
3.5 457 69.606 26.146 54.809 0.64655 -0.61163 
3.525 457 66.391 26.255 54.491 0.64589 -0.60862 
3.55 457 64.296 26.313 54.251 0.64496 -0.60702 
3.575 457 62.24 26.423 54.077 0.64542 -0.60397 
3.6 467 70.926 26.524 53.875 0.6455 -0.60114 
3.625 467 68.96 26.66 53.625 0.64572 -0.59735 
3.65 467 67.725 26.767 53.499 0.64647 -0.59434 
3.675 467 66.529 26.947 53.26 0.64744 -0.58927 
3.7 467 65.635 27.121 53.092 0.64888 -0.58435 
3.725 467 64.998 27.347 52.923 0.65109 -0.57794 
3.75 467 63.648 27.539 52.873 0.65373 -0.57247 
3.775 467 62.141 27.768 52.756 0.65634 -0.5659 
3.8 467 59.613 28.018 52.737 0.66008 -0.55868 
3.825 479 68.654 28.263 52.63 0.66291 -0.55157 
3.85 479 64.725 28.51 52.795 0.66813 -0.54435 
3.875 479 60.036 28.786 52.754 0.67191 -0.53625 
3.9 493 68.953 29.057 52.966 0.67781 -0.52824 
3.925 493 64.413 29.407 52.968 0.68294 -0.51781 
3.95 503 70.779 29.655 53.311 0.68957 -0.5104 
3.975 503 66.653 29.99 53.379 0.69493 -0.5003 
4 503 63.446 30.305 53.761 0.70275 -0.49075 
4.025 503 60.363 30.584 54.059 0.70925 -0.48225 
4.05 514 67.832 30.891 54.5 0.71736 -0.47284 
4.075 514 64.892 31.203 54.922 0.72528 -0.46321 
4.1 514 61.852 31.485 55.59 0.7349 -0.45446 
4.125 525 69.254 31.789 56.033 0.74272 -0.44498 
4.15 525 66.866 32.183 56.551 0.75225 -0.43263 
4.175 525 65.149 32.511 57.121 0.76127 -0.42228 
4.2 525 64.416 32.87 57.746 0.77101 -0.41087 
4.225 525 63.746 33.223 58.671 0.78303 -0.39963 
4.25 525 62.986 33.561 59.661 0.79516 -0.38876 
4.275 525 61.675 33.907 60.66 0.80719 -0.37761 
4.3 537 68.846 34.319 62.14 0.82335 -0.36427 
4.325 537 74.202 34.477 63.512 0.83532 -0.35912 
4.35 537 80.021 34.513 64.841 0.84516 -0.35793 
4.375 525 71.583 34.535 66.118 0.85405 -0.35721 
4.4 525 75.335 34.427 67.113 0.85924 -0.36074 
4.425 525 78.478 34.346 68.236 0.86524 -0.36337 
4.45 515 69.681 34.227 69.072 0.86876 -0.36726 
4.475 515 71.657 34.042 69.982 0.87168 -0.37325 
4.5 515 72.477 33.943 70.594 0.87381 -0.37645 
4.525 515 73.784 33.69 71.502 0.87539 -0.38461 
4.55 515 73.511 33.586 72.284 0.87796 -0.38798 
4.575 515 73.829 33.448 72.93 0.87928 -0.3924 
4.6 515 72.459 33.308 73.37 0.87947 -0.3969 
4.625 515 70.453 33.156 73.822 0.87949 -0.40175 
4.65 515 69.224 33.123 74.302 0.88115 -0.40281 
4.675 515 67.655 33.011 75.008 0.8826 -0.40638 
4.7 515 66.189 32.878 75.494 0.88274 -0.41062 
4.725 515 63.552 32.789 75.638 0.88207 -0.41344 
4.75 515 61.072 32.723 75.925 0.88226 -0.41557 
4.775 526 69.087 32.686 76.581 0.88421 -0.41673 
4.8 526 66.524 32.532 77.297 0.88458 -0.42162 
4.825 526 63.802 32.512 77.571 0.88523 -0.42225 
4.85 526 60.546 32.363 77.604 0.88319 -0.42696 
4.875 537 67.813 32.3 78.626 0.8856 -0.42893 
4.9 537 65.198 32.2 79.305 0.88617 -0.43208 
4.925 537 62.028 32.144 79.758 0.88663 -0.43385 
4.95 549 70.33 32.014 80.01 0.88538 -0.43794 
4.975 549 67.284 31.997 80.283 0.88585 -0.43847 
5 549 63.835 31.88 81.047 0.88603 -0.44212 
5.025 549 61.246 31.757 81.319 0.88479 -0.44598 
5.05 563 69.584 31.802 81.762 0.88649 -0.44459 
5.075 563 65.122 31.576 81.678 0.88282 -0.45162 
5.1 563 62.074 31.483 82.279 0.88266 -0.45453 
5.125 575 68.022 31.397 82.574 0.88191 -0.45719 
5.15 575 63.14 31.445 83.099 0.88369 -0.4557 
5.175 587 69.479 31.354 83.052 0.88216 -0.45851 
5.2 587 64.427 31.256 84.159 0.8825 -0.46156 
5.225 587 59.877 31.165 83.621 0.88015 -0.46438 
5.25 603 68.182 31.132 85.248 0.88206 -0.4654 
5.275 603 63.868 31.01 85.76 0.88069 -0.46918 
5.3 615 68.857 30.943 86.414 0.88029 -0.47122 
5.325 615 64.494 30.813 86.26 0.87799 -0.47523 
5.35 615 60.469 30.853 85.416 0.87772 -0.47399 
5.375 631 68.064 30.629 87.212 0.87576 -0.48087 
5.4 631 64.668 30.646 85.012 0.87375 -0.48036 
5.425 631 59.631 30.463 87.802 0.87335 -0.48593 
5.45 648 68.534 30.505 87.011 0.87352 -0.48464 
5.475 648 64.14 30.442 90 0.87476 -0.48659 
5.5 660 68.48 30.245 88.647 0.87003 -0.49256 
5.525 660 63.138 30.142 90 0.86952 -0.49571 
5.55 660 58.618 30.085 86.24 0.86564 -0.49743 
5.575 684 71.137 30.063 90 0.86781 -0.49809 
5.6 684 65.253 30.005 84.622 0.86231 -0.49984 
5.625 699 70.293 29.864 87.016 0.86247 -0.50411 
5.65 699 64.679 29.803 85.897 0.86035 -0.50595 
5.675 699 59.11 29.53 90 0.85892 -0.51415 
5.7 721 68.206 29.44 87.371 0.85519 -0.51683 
5.725 721 61.77 29.451 85.637 0.85381 -0.51649 
5.75 738 66.945 29.338 85.253 0.85131 -0.51988 
5.775 753 69.829 28.925 90 0.85056 -0.53215 
5.8 753 63.639 29.004 90 0.84831 -0.52979 
5.825 767 66.106 29.004 85.419 0.84541 -0.5298 
5.85 767 59.65 29.019 86.611 0.84692 -0.52935 
5.875 780 61.036 28.966 82.807 0.84074 -0.53093 
5.9 780 54.806 28.804 85.012 0.8412 -0.53572 
5.925 780 49.187 28.53 85.253 0.83635 -0.54377 
5.95 780 43.662 28.668 85.217 0.83893 -0.5397 
5.975 780 38.775 28.784 81.282 0.83428 -0.53629 
6 780 34.739 28.22 85.749 0.83101 -0.55282 
6.025 780 31.1 28.294 83.379 0.82917 -0.55065 
6.05 780 28.007 28.385 81.029 0.82625 -0.54799 
6.075 780 25.589 28.136 80.909 0.82124 -0.55524 
6.1 780 23.325 28.078 80.817 0.81991 -0.55693 
6.125 780 20.822 27.989 82.881 0.82244 -0.5595 
6.15 780 18.732 27.903 84.441 0.82325 -0.562 
6.175 780 17.164 27.488 86.583 0.81745 -0.57393 
6.2 780 15.592 27.6 90 0.82133 -0.5707 
6.225 780 14.396 27.637 87.148 0.82086 -0.56966 
6.25 780 13.228 27.51 90 0.82766 -0.57329 
6.275 780 12.089 27.709 82.65 0.81655 -0.56759 
6.3 780 10.99 27.898 82.411 0.8198 -0.56213 
6.325 780 9.872 27.608 81.181 0.81161 -0.57047 
6.35 780 8.924 27.169 88.482 0.81219 -0.58299 
6.375 780 8.009 27.388 80.35 0.80535 -0.57677 
6.4 780 7.169 26.865 90 0.82021 -0.5916 
6.425 780 6.471 27.882 81.728 0.81813 -0.56259 
6.45 780 5.679 28.508 74.734 0.80922 -0.54441 
6.475 780 5.064 27.628 90 0.84069 -0.56991 
6.5 780 4.467 27.906 90 0.84869 -0.56191 

# MINIMA:
0.600 373.0 0.000 25.936 0.000 0.00000 -0.61741

# MAXIMA:
6.500 2305.1 80.021 45.000 90.000 0.88663 0.00000

# PEAKS:

# END SPECTRUM


# SPECTRUM:
4

# START TIME:
14:00:49

# END TIME:
14:11:17

# THETA ANGLE:
0.00 ø

# INCIDENCE ANGLE:
70.00 ø

# ACCUMULATION NUMBER:
1

# ELLIPSOMETRIC CONFIGURATION:
-45.00 øModulator
+45.00 øAnalyser

# INTEGRATION TIME:
500 ms

# FIRST POINT:
0.6000 eV

# LAST POINT:
6.5000 eV

# INCREMENT:
0.0250 eV

# NUMBER OF POINTS:
237

# DATA:
eV Hv S0 Psi Delta Is Ic
0.6 1397 65.202 37.696 27.669 0.44935 -0.2522 
0.625 1295.4 77.615 37.27 28.04 0.45308 -0.26655 
0.65 1193.8 75.09 36.867 28.769 0.46201 -0.2801 
0.675 1193.8 71.326 37.012 29.69 0.47618 -0.27522 
0.7 1092.2 73.426 36.69 30.377 0.48457 -0.28602 
0.725 990.6 66.029 36.649 31.339 0.49816 -0.28739 
0.75 990.6 66.864 36.491 32.066 0.50765 -0.29267 
0.775 889 63.644 36.384 32.879 0.51849 -0.29624 
0.8 596.9 62.009 36.395 33.744 0.53061 -0.29587 
0.825 895.4 74.12 36.097 34.396 0.53784 -0.3058 
0.85 895.4 68.742 35.914 35.021 0.54525 -0.31187 
0.875 603.3 60.75 35.709 35.69 0.55298 -0.31866 
0.9 704.9 61.651 35.538 36.388 0.56119 -0.32431 
0.925 901.7 77.288 35.476 37.241 0.57203 -0.32638 
0.95 901.7 66.589 35.305 37.945 0.58002 -0.33199 
0.975 628.7 62.836 35.241 38.783 0.59038 -0.33411 
1 927.1 69.96 35.13 39.397 0.59739 -0.33774 
1.025 927.1 74.083 34.889 40.086 0.60425 -0.34566 
1.05 558.8 61.631 34.862 40.987 0.61525 -0.34653 
1.075 958.9 80.214 34.63 41.538 0.62014 -0.35414 
1.1 857.3 69.063 34.48 42.302 0.62817 -0.35903 
1.125 857.3 70.747 34.389 43.075 0.63664 -0.36199 
1.15 755.7 65.685 34.274 43.881 0.64514 -0.36574 
1.175 755.7 70.838 34.109 44.481 0.65065 -0.37107 
1.2 857.3 73.706 34.001 45.233 0.65829 -0.37458 
1.225 571.5 60.544 33.769 45.91 0.66376 -0.38206 
1.25 400.1 63.482 33.698 46.571 0.67044 -0.38436 
1.275 698.5 73.678 33.542 47.239 0.67625 -0.38938 
1.3 616 60.9 33.428 47.986 0.68318 -0.39306 
1.325 812.8 69.786 33.223 48.552 0.68711 -0.3996 
1.35 514.4 73.714 33.197 49.246 0.69413 -0.40045 
1.375 914.4 79.26 32.959 49.938 0.69873 -0.40804 
1.4 616 66.761 32.901 50.674 0.70558 -0.4099 
1.425 1416.1 68.616 32.74 51.292 0.70997 -0.41502 
1.45 2413 60.792 32.544 52.04 0.71508 -0.42122 
1.475 780 0 45 0 0.718513 -0.423445 
1.5 489 66.713 32.391 52.879 0.72137 -0.42606 
1.525 587 72.715 32.157 53.534 0.72475 -0.43343 
1.55 534 71.826 32.052 54.093 0.72864 -0.43675 
1.575 573 66.991 31.964 54.551 0.73173 -0.4395 
1.6 573 76.288 31.801 55.227 0.73576 -0.44461 
1.625 524 71.635 31.739 55.798 0.74002 -0.44653 
1.65 524 64.485 31.549 56.385 0.74266 -0.45247 
1.675 524 78.253 31.425 57.056 0.74674 -0.45631 
1.7 507 70.532 31.349 57.617 0.75041 -0.45867 
1.725 496 69.47 31.195 58.104 0.75233 -0.46344 
1.75 496 77.975 31.095 58.712 0.75586 -0.46655 
1.775 479 69.563 30.997 59.144 0.75794 -0.46955 
1.8 466 72.059 30.831 59.764 0.76042 -0.47467 
1.825 466 77.715 30.717 60.413 0.76375 -0.47816 
1.85 453 70.07 30.622 60.809 0.76534 -0.48108 
1.875 453 75.91 30.471 61.371 0.76725 -0.4857 
1.9 440 69.86 30.366 61.801 0.7688 -0.48891 
1.925 440 77.059 30.239 62.492 0.77179 -0.49276 
1.95 429 69.746 30.142 62.865 0.7729 -0.49571 
1.975 429 77.368 29.999 63.4 0.77435 -0.50003 
2 418 69.177 29.907 63.953 0.7766 -0.50281 
2.025 418 72.299 29.816 64.365 0.77786 -0.50556 
2.05 418 71.791 29.705 64.904 0.77956 -0.50889 
2.075 406 70.15 29.605 65.342 0.78072 -0.51189 
2.1 406 73.898 29.498 65.957 0.78277 -0.51509 
2.125 406 77.743 29.416 66.501 0.78469 -0.51756 
2.15 398 70.469 29.309 67.005 0.78589 -0.52073 
2.175 398 73.323 29.186 67.665 0.78759 -0.5244 
2.2 398 75.355 29.117 68.047 0.78856 -0.52645 
2.225 398 78.614 28.973 68.893 0.79068 -0.53073 
2.25 390 70.273 28.894 69.162 0.79074 -0.53306 
2.275 390 71.801 28.762 70.121 0.79335 -0.53694 
2.3 390 73.185 28.636 70.51 0.79304 -0.54065 
2.325 390 75.14 28.474 71.367 0.79423 -0.54541 
2.35 390 77.235 28.308 71.945 0.79388 -0.55026 
2.375 383 68.574 28.14 72.458 0.79308 -0.55513 
2.4 383 70.449 27.892 73.471 0.79274 -0.56233 
2.425 383 74.023 27.637 73.781 0.78918 -0.56965 
2.45 373 69.475 27.354 74.347 0.78595 -0.57774 
2.475 373 69.519 27.096 74.201 0.78035 -0.58507 
2.5 398 66.811 26.914 73.508 0.77404 -0.59021 
2.525 398 67.26 26.652 73.614 0.76925 -0.59757 
2.55 398 65.841 26.446 73.329 0.76399 -0.60331 
2.575 398 69.767 26.317 73.363 0.76151 -0.6069 
2.6 398 65.702 26.183 73.018 0.7574 -0.61061 
2.625 398 78.764 26.083 73.252 0.75629 -0.61337 
2.65 389 69.492 26.053 73.183 0.7554 -0.6142 
2.675 389 60.398 26.037 73.111 0.75478 -0.61464 
2.7 400 68.148 25.985 73.398 0.75485 -0.61608 
2.725 400 64.34 25.952 73.234 0.75352 -0.61698 
2.75 400 67.575 25.948 73.485 0.75443 -0.61709 
2.775 408 68.173 25.924 73.486 0.75394 -0.61774 
2.8 408 67.121 25.916 73.734 0.75474 -0.61796 
2.825 408 67.111 25.91 73.708 0.75451 -0.61813 
2.85 408 63.673 25.891 74.114 0.75565 -0.61866 
2.875 408 62.263 25.845 74.305 0.75542 -0.6199 
2.9 408 61.398 25.833 74.524 0.75598 -0.62023 
2.925 408 59.788 25.813 74.752 0.75637 -0.62079 
2.95 408 59.906 25.767 74.899 0.75593 -0.62206 
2.975 419 69.407 25.74 75.274 0.75669 -0.6228 
3 419 67.486 25.683 75.362 0.7558 -0.62433 
3.025 419 65.146 25.645 75.698 0.75614 -0.62537 
3.05 419 62.114 25.629 75.62 0.75554 -0.62581 
3.075 428 70.175 25.543 76.317 0.75601 -0.62815 
3.1 413 68.134 25.48 76.441 0.75506 -0.62986 
3.125 413 66.73 25.416 76.635 0.75431 -0.63158 
3.15 413 63.529 25.355 76.924 0.75388 -0.63325 
3.175 413 59.352 25.259 77.104 0.75236 -0.63584 
3.2 424 68.65 25.169 77.693 0.75213 -0.63826 
3.225 424 65.729 25.062 77.516 0.74929 -0.64113 
3.25 424 62.777 24.949 77.667 0.74725 -0.64415 
3.275 433 69.207 24.763 77.785 0.74347 -0.64912 
3.3 433 64.152 24.637 77.919 0.74105 -0.65245 
3.325 443 68.806 24.458 78.092 0.73752 -0.65717 
3.35 443 64.961 24.298 77.648 0.73271 -0.66136 
3.375 443 64.51 24.149 77.645 0.72932 -0.66526 
3.4 443 64.298 24.054 77.227 0.72598 -0.66773 
3.425 443 63.144 23.987 77.157 0.72427 -0.66946 
3.45 443 61.508 24.026 76.194 0.72226 -0.66846 
3.475 443 59.074 24.019 76.118 0.72188 -0.66863 
3.5 454 68.137 24.056 75.527 0.72083 -0.66768 
3.525 454 65.549 24.064 75.56 0.72112 -0.66746 
3.55 454 62.997 24.142 74.777 0.72027 -0.66543 
3.575 454 60.7 24.162 74.956 0.72131 -0.66492 
3.6 465 70.803 24.188 74.793 0.72135 -0.66424 
3.625 465 69.204 24.275 74.265 0.72144 -0.66197 
3.65 465 67.828 24.384 74.016 0.72296 -0.65912 
3.675 465 66.762 24.466 73.718 0.72369 -0.65696 
3.7 465 65.458 24.599 73.62 0.72625 -0.65344 
3.725 465 64.649 24.769 73.085 0.72792 -0.64895 
3.75 465 63.518 24.91 72.859 0.73008 -0.6452 
3.775 465 62.282 25.116 72.44 0.73283 -0.63967 
3.8 465 60.009 25.294 72.512 0.73689 -0.63489 
3.825 477 68.969 25.504 72.25 0.74023 -0.62922 
3.85 477 64.461 25.74 72.093 0.74448 -0.6228 
3.875 477 59.74 26.017 71.441 0.74737 -0.61521 
3.9 491 68.664 26.261 71.684 0.75337 -0.60847 
3.925 491 64.553 26.566 71.361 0.75806 -0.59997 
3.95 491 60.399 26.843 71.504 0.76415 -0.59222 
3.975 503 68.26 27.154 71.47 0.77006 -0.58344 
4 503 64.852 27.464 71.657 0.77684 -0.57461 
4.025 503 61.566 27.772 71.677 0.78276 -0.56577 
4.05 513 67.68 28.079 72.199 0.7908 -0.55692 
4.075 513 64.845 28.413 72.345 0.79759 -0.54718 
4.1 513 61.782 28.836 72.315 0.80507 -0.53477 
4.125 513 58.912 29.235 72.294 0.81198 -0.52295 
4.15 526 68.582 29.601 73.141 0.82206 -0.512 
4.175 526 66.838 30.034 73.205 0.82965 -0.49897 
4.2 526 65.421 30.501 73.57 0.83892 -0.48478 
4.225 526 64.771 30.968 74.328 0.84962 -0.47045 
4.25 526 64.206 31.49 74.726 0.85938 -0.45431 
4.275 526 63.01 31.921 76.273 0.87195 -0.44084 
4.3 541 68.221 32.681 76.766 0.88482 -0.41689 
4.325 541 74.849 33.126 78.253 0.89615 -0.40273 
4.35 530 69.403 33.381 79.983 0.90487 -0.39454 
4.375 530 73.733 33.455 81.067 0.90873 -0.39217 
4.4 530 78.836 33.67 82.167 0.91419 -0.38527 
4.425 519 70.431 33.679 83.296 0.91662 -0.38497 
4.45 519 73.907 33.69 84.146 0.91826 -0.38461 
4.475 519 75.809 33.64 85.512 0.91957 -0.38624 
4.5 519 77.953 33.599 85.909 0.9195 -0.38755 
4.525 519 79.012 33.449 87.694 0.91906 -0.39237 
4.55 519 80.475 33.32 90 0.91805 -0.39652 
4.575 509 70.1 33.284 90 0.91835 -0.39765 
4.6 509 69.398 33.151 89.626 0.91566 -0.40191 
4.625 509 68.088 33.029 88.695 0.91373 -0.4058 
4.65 509 67.441 32.952 88.846 0.91268 -0.40826 
4.675 509 65.787 32.789 90 0.91114 -0.41345 
4.7 509 63.83 32.74 90 0.91003 -0.41502 
4.725 509 62.833 32.714 87.284 0.90842 -0.41584 
4.75 509 60.453 32.625 86.204 0.90614 -0.41867 
4.775 520 68.848 32.57 86.199 0.90534 -0.4204 
4.8 520 65.381 32.501 86.557 0.90468 -0.4226 
4.825 520 62.879 32.452 85.282 0.90254 -0.42412 
4.85 520 61.469 32.395 84.03 0.89984 -0.42595 
4.875 531 67.822 32.269 84.972 0.89939 -0.42992 
4.9 531 65.716 32.299 84.44 0.89906 -0.42898 
4.925 531 62.123 32.287 83.553 0.89742 -0.42936 
4.95 531 60.427 32.183 83.059 0.89497 -0.43262 
4.975 544 68.827 32.151 82.551 0.89349 -0.43363 
5 544 65.659 32.032 82.76 0.89212 -0.43736 
5.025 544 62.364 32.042 81.868 0.89039 -0.43706 
5.05 544 59.83 32.014 81.6 0.88936 -0.43794 
5.075 559 69.08 32.002 80.368 0.88616 -0.43831 
5.1 559 65.072 31.874 80.391 0.88427 -0.44233 
5.125 559 60.5 31.922 79.682 0.88308 -0.44081 
5.15 574 69.409 31.752 80.021 0.88143 -0.44613 
5.175 574 64.827 31.743 79.004 0.87839 -0.44643 
5.2 574 61.59 31.762 78.717 0.87782 -0.44583 
5.225 589 68.585 31.609 78.715 0.87546 -0.45061 
5.25 589 64.615 31.732 78.213 0.87579 -0.44676 
5.275 601 69.942 31.636 78.018 0.8737 -0.44975 
5.3 601 65.682 31.565 77.698 0.87155 -0.45197 
5.325 601 61.544 31.495 76.85 0.86757 -0.45415 
5.35 616 69.32 31.447 76.571 0.86582 -0.45565 
5.375 616 64.916 31.451 75.859 0.86326 -0.4555 
5.4 616 61.149 31.354 75.584 0.86069 -0.45854 
5.425 631 68.065 31.271 75.537 0.85923 -0.46109 
5.45 631 64.094 31.285 75.091 0.85769 -0.46067 
5.475 631 59.408 31.17 74.903 0.85515 -0.46422 
5.5 647 67.159 31.174 74.279 0.85264 -0.46411 
5.525 647 62.024 31.092 74.625 0.8528 -0.46662 
5.55 647 57.549 31.047 73.328 0.84658 -0.46801 
5.575 667 66.883 31.003 73.565 0.84692 -0.46938 
5.6 667 61.799 30.906 72.695 0.84151 -0.47236 
5.625 685 68.921 30.814 72.883 0.84091 -0.47519 
5.65 685 63.382 30.692 72.445 0.83697 -0.47893 
5.675 698 67.155 30.593 72.476 0.83552 -0.48198 
5.7 698 60.989 30.636 71.842 0.83324 -0.48065 
5.725 713 66.369 30.701 71.393 0.8321 -0.47867 
5.75 713 60.594 30.712 70.788 0.82928 -0.47831 
5.775 730 65.723 30.423 71.424 0.82782 -0.48716 
5.8 730 59.206 30.411 70.955 0.82531 -0.48754 
5.825 744 62.013 30.471 69.929 0.82104 -0.48569 
5.85 768 70.467 29.935 70.62 0.81589 -0.50196 
5.875 768 63.599 30.314 70.172 0.81979 -0.49047 
5.9 780 64.075 29.88 70.884 0.81628 -0.50364 
5.925 780 56.24 30.067 69.677 0.81321 -0.49798 
5.95 780 50.49 30.134 68.939 0.81035 -0.49594 
5.975 780 45.569 30.115 67.96 0.80459 -0.49652 
6 780 40.614 29.789 68.959 0.80482 -0.50636 
6.025 780 36.233 29.712 67.395 0.79482 -0.50868 
6.05 780 32.895 29.713 67.014 0.79261 -0.50865 
6.075 780 29.505 29.704 67.793 0.79695 -0.50894 
6.1 780 26.749 29.637 67.689 0.79527 -0.51093 
6.125 780 23.888 29.88 66.25 0.79076 -0.50363 
6.15 780 21.486 29.073 68.667 0.7912 -0.52774 
6.175 780 19.716 28.729 68.795 0.78592 -0.53791 
6.2 780 18.022 28.949 68.866 0.79013 -0.53143 
6.225 780 16.556 28.7 70.155 0.79242 -0.53877 
6.25 780 15.073 29.043 68.678 0.79074 -0.52865 
6.275 780 13.75 29.341 66.383 0.78275 -0.51979 
6.3 780 12.548 29.666 64.77 0.77808 -0.51007 
6.325 780 11.38 29.076 70.228 0.79938 -0.52766 
6.35 780 10.186 29.215 70.307 0.80217 -0.52353 
6.375 780 9.22 29.244 67.154 0.78566 -0.52267 
6.4 780 8.285 29.264 69.363 0.79817 -0.52207 
6.425 780 7.351 29.539 67.828 0.79443 -0.51388 
6.45 780 6.448 29.195 70.626 0.80342 -0.52412 
6.475 780 5.743 29.79 69.262 0.80647 -0.50632 
6.5 780 4.968 28.978 74.418 0.81649 -0.53057 

# MINIMA:
0.600 373.0 0.000 23.987 0.000 0.00000 -0.66946

# MAXIMA:
6.500 2413.0 80.475 45.000 90.000 0.91957 0.00000

# PEAKS:

# END SPECTRUM


# SPECTRUM:
5

# START TIME:
14:12:00

# END TIME:
14:22:20

# THETA ANGLE:
0.00 ø

# INCIDENCE ANGLE:
75.00 ø

# ACCUMULATION NUMBER:
1

# ELLIPSOMETRIC CONFIGURATION:
-45.00 øModulator
+45.00 øAnalyser

# INTEGRATION TIME:
500 ms

# FIRST POINT:
0.6000 eV

# LAST POINT:
6.5000 eV

# INCREMENT:
0.0250 eV

# NUMBER OF POINTS:
237

# DATA:
eV Hv S0 Psi Delta Is Ic
0.6 1498.6 61.504 35.227 38.286 0.58388 -0.33455 
0.625 1397 78.073 35.01 39.059 0.59219 -0.3417 
0.65 1295.4 76.705 34.681 40.143 0.60333 -0.35247 
0.675 1295.4 74.134 34.573 41.174 0.61522 -0.35598 
0.7 1193.8 79.278 34.371 42.279 0.62697 -0.36258 
0.725 1092.2 75.592 34.126 43.439 0.63864 -0.37052 
0.75 1092.2 77.364 33.923 44.328 0.64718 -0.37708 
0.775 990.6 74.393 33.858 45.461 0.65954 -0.37919 
0.8 692.2 81.12 33.681 46.52 0.6697 -0.38491 
0.825 889 68.806 33.448 47.385 0.6769 -0.3924 
0.85 889 64.816 33.318 48.474 0.68726 -0.39658 
0.875 609.6 60.155 33.341 49.495 0.69825 -0.39582 
0.9 806.5 80.515 33.125 50.44 0.70567 -0.40273 
0.925 908.1 75.887 33.1 51.442 0.71548 -0.40354 
0.95 908.1 65.261 32.807 52.374 0.72135 -0.41288 
0.975 711.2 78.112 32.754 53.464 0.73119 -0.41456 
1 908.1 64.308 32.665 54.276 0.73774 -0.4174 
1.025 908.1 67.172 32.555 55.292 0.74571 -0.42089 
1.05 609.6 72.441 32.411 56.182 0.75187 -0.42543 
1.075 908.1 66.374 32.311 57.138 0.75893 -0.42857 
1.1 908.1 74.626 32.157 58.214 0.76602 -0.43344 
1.125 908.1 76.439 32.031 59.193 0.77239 -0.43738 
1.15 806.5 73.581 31.915 60.155 0.77846 -0.44103 
1.175 806.5 79 31.809 60.986 0.78343 -0.44435 
1.2 806.5 61.658 31.656 62.075 0.78943 -0.44914 
1.225 609.6 69.358 31.642 62.801 0.79447 -0.44957 
1.25 412.8 67.609 31.469 63.735 0.79858 -0.45495 
1.275 711.2 77.417 31.313 64.746 0.80315 -0.4598 
1.3 616 61.283 31.257 65.443 0.80688 -0.46154 
1.325 812.8 69.988 31.119 66.403 0.81089 -0.46581 
1.35 514.4 74.596 30.966 67.233 0.81364 -0.47052 
1.375 914.4 79.591 30.922 68.056 0.81779 -0.47186 
1.4 616 67.913 30.763 69.02 0.82077 -0.47675 
1.425 1416.1 67.522 30.702 69.647 0.82319 -0.47864 
1.45 2514.6 61.709 30.559 70.829 0.82705 -0.48302 
1.475 780 0 45 0 0.829337 -0.485723 
1.5 492 68.688 30.401 72.065 0.83052 -0.48783 
1.525 578 63.58 30.316 72.483 0.83107 -0.49042 
1.55 534 71.792 30.223 73.259 0.83303 -0.49323 
1.575 584 78.031 30.094 74.235 0.83502 -0.49716 
1.6 565 70.227 29.973 74.778 0.83519 -0.50081 
1.625 523 70.885 29.967 75.62 0.83833 -0.501 
1.65 523 65.591 29.861 76.205 0.83868 -0.5042 
1.675 523 78.607 29.742 77.278 0.84034 -0.50777 
1.7 506 71.132 29.663 78.187 0.84186 -0.51016 
1.725 495 70.682 29.594 78.507 0.84163 -0.51223 
1.75 485 69.182 29.508 79.512 0.84299 -0.51479 
1.775 475 69.025 29.415 79.991 0.8426 -0.51759 
1.8 461 70.712 29.344 80.806 0.84338 -0.5197 
1.825 461 77.171 29.221 82.151 0.84412 -0.52337 
1.85 448 69.865 29.195 82.649 0.84464 -0.52413 
1.875 448 76.267 29.087 83.38 0.84399 -0.52734 
1.9 435 69.684 29.004 83.774 0.84312 -0.5298 
1.925 435 76.031 28.929 85.034 0.84356 -0.53201 
1.95 424 69.772 28.857 85.299 0.84254 -0.53415 
1.975 424 77.061 28.793 86.818 0.8429 -0.53603 
2 415 71.307 28.727 90 0.84322 -0.53797 
2.025 415 74.105 28.645 90 0.84215 -0.5404 
2.05 415 73.469 28.603 90 0.84266 -0.54161 
2.075 402 70.372 28.559 90 0.84073 -0.54292 
2.1 402 74.841 28.484 90 0.84087 -0.5451 
2.125 395 69.373 28.457 90 0.84049 -0.54591 
2.15 395 72.152 28.399 90 0.83979 -0.54759 
2.175 395 75.499 28.325 90 0.83832 -0.54976 
2.2 395 78.379 28.279 90 0.83857 -0.55108 
2.225 387 69.748 28.228 90 0.83866 -0.55257 
2.25 387 72.38 28.165 90 0.83714 -0.55442 
2.275 387 74.288 28.086 90 0.8366 -0.55672 
2.3 387 76.382 28.03 90 0.83358 -0.55833 
2.325 387 78.307 27.905 90 0.83087 -0.56193 
2.35 380 70.24 27.839 90 0.82819 -0.56385 
2.375 380 71.693 27.703 90 0.82579 -0.56777 
2.4 380 73.366 27.551 90 0.82124 -0.57212 
2.425 380 76.975 27.316 90 0.8161 -0.57884 
2.45 368 70.586 27.079 90 0.81164 -0.58556 
2.475 368 70.41 26.841 86.605 0.80434 -0.59225 
2.5 393 67.329 26.677 82.674 0.79578 -0.59688 
2.525 393 67.139 26.432 82.158 0.78974 -0.60372 
2.55 393 66.056 26.226 82.371 0.78583 -0.60942 
2.575 393 70.074 26.067 82.663 0.78299 -0.6138 
2.6 393 65.667 25.928 82.349 0.77946 -0.61764 
2.625 393 78.468 25.838 82.882 0.77847 -0.62011 
2.65 384 68.779 25.811 82.635 0.77747 -0.62084 
2.675 384 60.157 25.789 82.753 0.7772 -0.62144 
2.7 396 69.823 25.746 83.078 0.77682 -0.62262 
2.725 396 65.492 25.738 82.442 0.77555 -0.62284 
2.75 396 68.701 25.719 82.819 0.77581 -0.62336 
2.775 405 70.75 25.716 82.489 0.77516 -0.62344 
2.8 405 69.777 25.727 82.158 0.7748 -0.62314 
2.825 405 69.054 25.725 81.714 0.77389 -0.6232 
2.85 405 65.965 25.749 81.681 0.77434 -0.62255 
2.875 405 64.333 25.728 81.287 0.77311 -0.62311 
2.9 405 63.171 25.75 81.16 0.77331 -0.62252 
2.925 405 62.126 25.75 80.881 0.77271 -0.62252 
2.95 405 62.18 25.751 80.555 0.77202 -0.62249 
2.975 414 69.081 25.733 80.618 0.77178 -0.62297 
3 414 67.651 25.725 79.962 0.7701 -0.62319 
3.025 414 64.971 25.704 79.858 0.7694 -0.62377 
3.05 414 62.495 25.71 79.206 0.76792 -0.6236 
3.075 414 60.038 25.674 79.216 0.76716 -0.6246 
3.1 414 77.141 25.618 78.778 0.76482 -0.62612 
3.125 414 74.857 25.589 78.641 0.76383 -0.62691 
3.15 414 71.076 25.564 78.12 0.76187 -0.62758 
3.175 414 67.194 25.52 77.803 0.76004 -0.62877 
3.2 414 64.058 25.457 77.487 0.75775 -0.6305 
3.225 414 61.617 25.4 77.191 0.75567 -0.63202 
3.25 423 69.079 25.268 77.284 0.75308 -0.63561 
3.275 423 64.669 25.162 76.623 0.74879 -0.63843 
3.3 423 59.979 25.026 76.699 0.74606 -0.64209 
3.325 437 69.313 24.877 76.227 0.74132 -0.64608 
3.35 437 65.401 24.697 76.337 0.73772 -0.65085 
3.375 437 65.25 24.569 76.141 0.73428 -0.65423 
3.4 437 64.703 24.423 76.724 0.73282 -0.65809 
3.425 437 63.501 24.337 76.926 0.73151 -0.66033 
3.45 437 61.41 24.283 77.155 0.73096 -0.66176 
3.475 447 69.405 24.219 77.824 0.7314 -0.66344 
3.5 447 66.392 24.196 77.851 0.73097 -0.66402 
3.525 447 63.145 24.201 78.118 0.7318 -0.6639 
3.55 447 60.948 24.173 77.923 0.73064 -0.66463 
3.575 457 69.499 24.165 78.32 0.73152 -0.66484 
3.6 457 67.257 24.153 78.19 0.73091 -0.66514 
3.625 457 64.996 24.163 79.119 0.73351 -0.6649 
3.65 457 63.489 24.199 79.29 0.73475 -0.66395 
3.675 457 62.283 24.247 79.482 0.73631 -0.66269 
3.7 457 60.995 24.306 79.959 0.73876 -0.66115 
3.725 457 60.244 24.349 80.999 0.74199 -0.66003 
3.75 467 69.089 24.443 81.022 0.74417 -0.65756 
3.775 467 66.717 24.567 81.532 0.74799 -0.6543 
3.8 467 63.784 24.693 81.679 0.75112 -0.65096 
3.825 467 60.204 24.851 82.09 0.75544 -0.64676 
3.85 480 69.496 24.963 82.957 0.75945 -0.64377 
3.875 480 63.893 25.179 82.847 0.76406 -0.63799 
3.9 480 58.972 25.409 83.215 0.76971 -0.63179 
3.925 495 69.161 25.649 83.561 0.77549 -0.62527 
3.95 495 64.458 25.855 84.888 0.78176 -0.61964 
3.975 495 61.108 26.126 83.84 0.78614 -0.61219 
4 508 69.661 26.354 84.365 0.79172 -0.60587 
4.025 508 66.521 26.659 84.451 0.7982 -0.59737 
4.05 508 63.127 26.948 86.034 0.80602 -0.58924 
4.075 518 70.013 27.272 86.026 0.8126 -0.58009 
4.1 518 66.308 27.596 85.416 0.81845 -0.57082 
4.125 518 63.303 27.998 84.978 0.82581 -0.55926 
4.15 518 60.547 28.394 84.892 0.83333 -0.54774 
4.175 518 59.563 28.848 83.115 0.83913 -0.5344 
4.2 529 68.636 29.276 84.803 0.8496 -0.52174 
4.225 529 67.833 29.766 83.96 0.85713 -0.50705 
4.25 529 67.059 30.362 84.106 0.86766 -0.48903 
4.275 529 65.211 30.942 83.25 0.87588 -0.47127 
4.3 543 70.213 31.77 82.175 0.88691 -0.44557 
4.325 543 76.905 32.28 81.752 0.8937 -0.42955 
4.35 532 71.294 32.706 81.213 0.89865 -0.4161 
4.375 532 76.399 33.04 80.251 0.90091 -0.40546 
4.4 522 70.033 33.352 78.516 0.90008 -0.39549 
4.425 522 73.597 33.594 77.384 0.89953 -0.38771 
4.45 522 77.851 33.765 76.341 0.89795 -0.3822 
4.475 512 69.368 33.862 75.057 0.89408 -0.37905 
4.5 512 70.624 34.031 73.927 0.89133 -0.3736 
4.525 512 73.07 34.017 72.849 0.88616 -0.37406 
4.55 512 73.533 33.997 72.054 0.88204 -0.37469 
4.575 512 74.566 33.97 71.214 0.87742 -0.37558 
4.6 512 74.214 33.855 70.118 0.87013 -0.37929 
4.625 512 72.808 33.852 69.587 0.86714 -0.37938 
4.65 512 72.221 33.763 68.896 0.86208 -0.38226 
4.675 512 71.565 33.777 68.577 0.86038 -0.38182 
4.7 512 69.533 33.704 67.959 0.85579 -0.38417 
4.725 512 67.524 33.705 67.349 0.85207 -0.38413 
4.75 512 65.457 33.629 66.741 0.84731 -0.38657 
4.775 512 63.195 33.592 66.335 0.84425 -0.38777 
4.8 512 60.158 33.549 65.835 0.84045 -0.38916 
4.825 524 70.489 33.578 65.404 0.83794 -0.38823 
4.85 524 66.975 33.532 64.718 0.83274 -0.38969 
4.875 524 65.163 33.524 64.593 0.83177 -0.38996 
4.9 524 61.939 33.492 64.091 0.82788 -0.391 
4.925 524 59.766 33.574 63.713 0.82621 -0.38837 
4.95 538 69.733 33.456 63.294 0.82178 -0.39213 
4.975 538 66.753 33.469 62.858 0.81876 -0.39174 
5 538 64.621 33.431 62.523 0.81583 -0.39295 
5.025 538 61.336 33.453 62.114 0.81305 -0.39225 
5.05 550 68.368 33.409 61.733 0.80963 -0.39366 
5.075 550 65.801 33.392 61.287 0.80602 -0.3942 
5.1 550 61.464 33.342 60.859 0.8021 -0.39581 
5.125 563 68.898 33.323 60.562 0.79953 -0.39643 
5.15 563 64.096 33.396 60.186 0.79743 -0.39408 
5.175 563 60.137 33.352 59.829 0.79404 -0.39549 
5.2 575 66.77 33.281 59.732 0.79242 -0.39775 
5.225 575 61.987 33.357 59.216 0.78912 -0.39533 
5.25 589 70.159 33.327 58.987 0.78689 -0.39627 
5.275 589 65.905 33.282 58.654 0.7836 -0.39771 
5.3 589 60.949 33.266 58.245 0.77997 -0.39824 
5.325 602 68.318 33.232 57.83 0.77605 -0.39933 
5.35 602 63.863 33.227 57.616 0.77417 -0.39949 
5.375 602 59.644 33.294 56.922 0.76894 -0.39735 
5.4 617 68.036 33.299 56.659 0.76669 -0.39719 
5.425 617 63.212 33.187 56.321 0.7624 -0.40078 
5.45 617 59.327 33.156 56.297 0.76183 -0.40176 
5.475 633 68.016 33.16 55.953 0.75882 -0.40162 
5.5 633 62.831 33.108 55.441 0.7536 -0.4033 
5.525 648 69.579 33.153 55.191 0.75185 -0.40186 
5.55 648 64.959 33.129 55.082 0.75058 -0.40261 
5.575 661 69.691 33.102 54.708 0.74684 -0.40348 
5.6 661 64.88 33.114 54.245 0.74267 -0.40311 
5.625 674 68.526 33.04 53.92 0.73878 -0.40547 
5.65 674 63.476 33.014 53.608 0.73554 -0.40628 
5.675 688 67.954 32.988 53.655 0.73569 -0.40713 
5.7 688 62.197 32.935 53.273 0.73146 -0.4088 
5.725 705 68.287 32.807 53.11 0.72844 -0.41287 
5.75 705 62.932 32.909 52.692 0.72559 -0.40964 
5.775 718 65.482 32.737 52.34 0.72022 -0.41511 
5.8 734 69.827 32.702 52.609 0.72243 -0.41622 
5.825 734 63.371 32.645 51.916 0.71503 -0.41804 
5.85 750 66.995 32.454 52.121 0.71482 -0.42408 
5.875 764 68.889 32.525 51.68 0.71134 -0.42184 
5.9 764 61.272 32.436 51.129 0.70488 -0.42465 
5.925 780 64.465 32.513 51.023 0.70471 -0.42221 
5.95 780 57.54 32.648 50.471 0.70071 -0.41795 
5.975 780 51.433 32.67 50.218 0.6984 -0.41724 
6 780 46.113 32.455 50.418 0.69799 -0.42405 
6.025 780 41.022 32.543 49.316 0.68775 -0.42125 
6.05 780 37.337 32.417 50.23 0.69566 -0.42524 
6.075 780 33.992 32.292 49.476 0.68657 -0.42918 
6.1 780 30.301 32.278 49.372 0.68534 -0.42962 
6.125 780 27.081 32.083 49.471 0.68412 -0.43576 
6.15 780 24.892 32.027 49.853 0.68734 -0.43754 
6.175 780 22.78 31.796 49.403 0.68008 -0.44474 
6.2 780 20.644 31.887 50.402 0.69121 -0.44193 
6.225 780 18.955 32.064 49.333 0.68249 -0.43636 
6.25 780 17.343 31.966 50.306 0.69119 -0.43944 
6.275 780 15.979 31.768 49.599 0.68174 -0.44563 
6.3 780 14.323 31.06 50.564 0.68269 -0.46763 
6.325 780 13.038 31.467 49.832 0.68047 -0.45503 
6.35 780 11.72 32.433 49.309 0.68644 -0.42475 
6.375 780 10.553 32.075 50.495 0.69437 -0.43601 
6.4 780 9.333 31.897 49.866 0.68595 -0.44161 
6.425 780 8.536 32.033 51.279 0.70164 -0.43733 
6.45 780 7.362 31.683 52.352 0.70776 -0.44829 
6.475 780 6.535 31.504 51.704 0.69933 -0.45386 
6.5 780 5.773 32.151 52.182 0.71183 -0.43362 

# MINIMA:
0.600 368.0 0.000 24.153 0.000 0.00000 -0.66514

# MAXIMA:
6.500 2514.6 81.120 45.000 90.000 0.90091 0.00000

# PEAKS:

# END SPECTRUM

