## SPECTRUM TYPE:
Spectroscopic

## DATE:
1/30/2012

## COMMENTS:

## NUMBER OF SPECTRUM:
5

## ELLIPSOMETRIC CONFIGURATION:
+45.00 øModulator
-45.00 øAnalyser

## UNIT:
eV


# SPECTRUM:
1

# START TIME:
16:15:46

# END TIME:
16:27:08

# THETA ANGLE:
0.00 ø

# INCIDENCE ANGLE:
55.00 ø

# ACCUMULATION NUMBER:
1

# ELLIPSOMETRIC CONFIGURATION:
+45.00 øModulator
-45.00 øAnalyser

# INTEGRATION TIME:
500 ms

# FIRST POINT:
0.6000 eV

# LAST POINT:
6.5000 eV

# INCREMENT:
0.0250 eV

# NUMBER OF POINTS:
237

# DATA:
eV Hv S0 Psi Delta Is Ic
0.6 1301.8 60.26 41.595 12.429 -0.21372 0.11857 
0.625 1200.2 72.323 41.444 12.815 -0.2201 0.12381 
0.65 1098.6 68.023 41.291 13.19 -0.22627 0.1291 
0.675 1098.6 67.072 41.192 13.524 -0.23179 0.13252 
0.7 997 65.823 41.077 13.894 -0.23788 0.13653 
0.725 997 77.582 41.237 14.145 -0.24226 0.13098 
0.75 895.4 63.894 40.806 14.638 -0.25001 0.14589 
0.775 895.4 76.999 40.595 14.887 -0.25388 0.15315 
0.8 596.9 75.135 40.684 15.278 -0.26053 0.15007 
0.825 793.8 72.207 40.334 15.742 -0.26771 0.16216 
0.85 793.8 68.879 40.439 15.975 -0.27175 0.15852 
0.875 596.9 77.81 40.275 16.297 -0.27681 0.1642 
0.9 698.5 82.808 40.36 16.684 -0.28334 0.16127 
0.925 800.1 81.31 40.198 17.071 -0.28944 0.16682 
0.95 800.1 71.994 40.336 17.251 -0.29264 0.1621 
0.975 527.1 61.556 39.971 17.829 -0.30148 0.17465 
1 825.5 76.868 39.923 18.069 -0.3053 0.1763 
1.025 730.3 61.518 39.862 18.432 -0.3111 0.1784 
1.05 533.4 79.171 39.718 18.752 -0.31602 0.18334 
1.075 831.9 81.108 39.691 19.055 -0.32088 0.18426 
1.1 730.3 66.458 39.584 19.434 -0.32679 0.18792 
1.125 730.3 66.491 39.472 19.837 -0.33305 0.19175 
1.15 647.7 60.627 39.29 20.167 -0.33793 0.19801 
1.175 647.7 64.915 39.395 20.436 -0.3425 0.1944 
1.2 749.3 68.959 39.158 20.844 -0.34846 0.20251 
1.225 552.5 72.682 39.099 21.06 -0.35175 0.20455 
1.25 362 60.66 38.976 21.445 -0.35755 0.20874 
1.275 660.4 80.988 38.866 21.759 -0.36223 0.21248 
1.3 565.2 61.699 38.808 22.097 -0.36742 0.21446 
1.325 762 72.744 38.631 22.289 -0.36994 0.22049 
1.35 463.6 70.444 38.606 22.582 -0.37447 0.22135 
1.375 863.6 82.046 38.499 22.904 -0.3792 0.22499 
1.4 565.2 65.203 38.376 23.27 -0.38455 0.22915 
1.425 1263.7 62.541 38.355 23.495 -0.38799 0.22989 
1.45 2165.4 64.043 38.091 23.868 -0.39293 0.23882 
1.475 620 79.636 38.113 24.028 -0.39547 0.23809 
1.5 466 70.061 37.957 24.374 -0.40028 0.24338 
1.525 556 72.414 37.81 24.567 -0.40273 0.24836 
1.55 506 71.267 37.78 24.784 -0.40595 0.24938 
1.575 542 66.796 37.606 25.129 -0.41059 0.25526 
1.6 542 76.532 37.559 25.391 -0.41441 0.25683 
1.625 497 71.833 37.461 25.592 -0.41708 0.26012 
1.65 497 66.281 37.298 25.862 -0.42053 0.26563 
1.675 488 70.081 37.211 26.179 -0.42498 0.26856 
1.7 478 68.815 37.024 26.418 -0.42778 0.27484 
1.725 469 69.994 36.982 26.654 -0.43114 0.27624 
1.75 460 68.852 36.84 26.915 -0.43443 0.28101 
1.775 452 70.148 36.767 27.124 -0.43721 0.28346 
1.8 438 70.557 36.654 27.369 -0.44034 0.28722 
1.825 438 76.036 36.535 27.56 -0.44263 0.2912 
1.85 427 69.724 36.446 27.785 -0.44553 0.29416 
1.875 427 75.613 36.347 28.002 -0.44825 0.29748 
1.9 416 70.606 36.236 28.24 -0.4512 0.30116 
1.925 416 76.374 36.141 28.364 -0.45254 0.30435 
1.95 406 69.944 36.029 28.647 -0.4561 0.30805 
1.975 406 76.129 35.936 28.786 -0.45764 0.31114 
2 397 68.982 35.843 29.033 -0.46073 0.31421 
2.025 397 70.998 35.738 29.261 -0.46346 0.31771 
2.05 397 69.299 35.643 29.442 -0.46555 0.32085 
2.075 388 69.837 35.56 29.669 -0.46836 0.32358 
2.1 388 73.243 35.466 29.809 -0.46984 0.32668 
2.125 388 75.112 35.358 30.024 -0.47228 0.33026 
2.15 388 77.177 35.26 30.241 -0.47481 0.33348 
2.175 381 69.464 35.158 30.472 -0.47748 0.33683 
2.2 381 70.465 35.055 30.696 -0.48003 0.34023 
2.225 381 72.147 34.974 30.913 -0.4826 0.34288 
2.25 381 73.633 34.862 31.163 -0.48542 0.34653 
2.275 381 74.415 34.743 31.403 -0.48801 0.35042 
2.3 381 74.554 34.604 31.694 -0.49117 0.35498 
2.325 381 75.576 34.472 31.853 -0.4925 0.35928 
2.35 381 76.017 34.302 32.119 -0.49503 0.3648 
2.375 381 76.314 34.161 32.287 -0.49638 0.3694 
2.4 381 76.958 33.972 32.497 -0.49793 0.37552 
2.425 381 79.236 33.765 32.626 -0.49822 0.38218 
2.45 368 69.834 33.582 32.671 -0.4975 0.38811 
2.475 368 68.894 33.385 32.677 -0.49614 0.39441 
2.5 361 69.978 33.25 32.273 -0.48967 0.39873 
2.525 361 69.955 33.056 32.159 -0.48668 0.40494 
2.55 361 68.514 32.972 31.94 -0.48308 0.40762 
2.575 361 72.096 32.953 31.673 -0.47932 0.40823 
2.6 361 66.99 32.809 31.671 -0.47822 0.4128 
2.625 355 70.708 32.798 31.522 -0.47612 0.41317 
2.65 355 72.901 32.79 31.444 -0.47499 0.41343 
2.675 355 63.349 32.836 31.39 -0.47461 0.41195 
2.7 363 67.205 32.808 31.391 -0.47442 0.41284 
2.725 363 62.722 32.78 31.415 -0.47453 0.41374 
2.75 363 64.762 32.795 31.429 -0.47482 0.41327 
2.775 373 68.639 32.682 31.525 -0.47528 0.41684 
2.8 373 66.965 32.726 31.529 -0.47566 0.41545 
2.825 373 65.763 32.676 31.595 -0.47618 0.41705 
2.85 373 62.141 32.65 31.68 -0.47712 0.41787 
2.875 373 59.957 32.593 31.813 -0.47849 0.41966 
2.9 381 68.421 32.575 31.817 -0.4784 0.42024 
2.925 381 66.428 32.579 31.893 -0.47945 0.42012 
2.95 381 65.471 32.538 31.961 -0.48004 0.42141 
2.975 381 61.386 32.459 32.067 -0.48085 0.42392 
3 389 69.034 32.406 32.13 -0.48127 0.42558 
3.025 389 65.689 32.386 32.165 -0.48158 0.42622 
3.05 389 62.243 32.302 32.27 -0.48232 0.42889 
3.075 389 59.52 32.289 32.245 -0.48188 0.42928 
3.1 389 74.808 32.182 32.302 -0.48177 0.43266 
3.125 389 71.811 32.113 32.394 -0.48244 0.43482 
3.15 389 67.171 32.053 32.439 -0.48255 0.43672 
3.175 389 62.447 32.02 32.393 -0.48166 0.43776 
3.2 397 68.779 31.91 32.359 -0.48032 0.44118 
3.225 397 65.044 31.9 32.274 -0.4791 0.44151 
3.25 397 61.408 31.805 32.222 -0.47763 0.44448 
3.275 407 68.639 31.692 32.128 -0.47546 0.448 
3.3 407 62.628 31.625 31.891 -0.47177 0.4501 
3.325 418 68.575 31.624 31.581 -0.46765 0.45012 
3.35 418 63.869 31.57 31.233 -0.46258 0.45183 
3.375 418 63.198 31.576 30.969 -0.4591 0.45163 
3.4 418 61.955 31.679 30.558 -0.45443 0.4484 
3.425 418 59.927 31.824 30.307 -0.45219 0.44387 
3.45 427 67.335 31.952 30.123 -0.45069 0.43988 
3.475 427 63.78 32.119 29.969 -0.44988 0.43464 
3.5 427 60.75 32.245 29.864 -0.44939 0.43068 
3.525 438 69.004 32.422 29.809 -0.44996 0.42507 
3.55 438 65.876 32.541 29.771 -0.45031 0.42131 
3.575 438 62.734 32.709 29.727 -0.45092 0.416 
3.6 438 60.254 32.907 29.651 -0.4513 0.40969 
3.625 449 69.799 33.072 29.671 -0.45272 0.40445 
3.65 449 67.621 33.255 29.688 -0.45423 0.39859 
3.675 449 65.805 33.443 29.762 -0.45655 0.39258 
3.7 449 64.031 33.637 29.865 -0.45929 0.38634 
3.725 449 62.367 33.858 29.993 -0.46257 0.3792 
3.75 449 60.451 34.116 30.201 -0.46717 0.37085 
3.775 459 68.432 34.32 30.379 -0.47099 0.36422 
3.8 459 65.277 34.551 30.584 -0.47533 0.35672 
3.825 459 61.388 34.775 30.869 -0.48074 0.3494 
3.85 471 68.983 34.952 31.211 -0.48664 0.3436 
3.875 471 63.22 35.168 31.608 -0.49354 0.3365 
3.9 482 68.91 35.388 32.022 -0.50068 0.32926 
3.925 482 63.756 35.597 32.497 -0.50858 0.32236 
3.95 492 69.384 35.795 32.904 -0.51543 0.31582 
3.975 492 65.03 35.97 33.425 -0.52371 0.31 
4 492 61.34 36.138 33.856 -0.53066 0.30443 
4.025 502 67.143 36.235 34.549 -0.54077 0.30122 
4.05 502 64.007 36.438 35.053 -0.54887 0.29444 
4.075 502 60.925 36.589 35.682 -0.55833 0.28941 
4.1 514 68.551 36.673 36.314 -0.56737 0.28659 
4.125 514 65.251 36.77 36.962 -0.57664 0.28335 
4.15 514 62.231 36.839 37.614 -0.58574 0.28102 
4.175 514 60.418 36.962 38.312 -0.5957 0.27692 
4.2 514 59.045 36.975 39.127 -0.60644 0.27647 
4.225 525 68.386 37.019 39.915 -0.61691 0.27499 
4.25 525 66.817 36.99 40.862 -0.62884 0.27597 
4.275 525 64.716 36.902 41.595 -0.63751 0.27891 
4.3 511 71.104 36.805 42.466 -0.64772 0.28216 
4.325 511 75.619 36.844 42.892 -0.65322 0.28085 
4.35 502 70.452 36.482 43.836 -0.6622 0.29299 
4.375 502 73.87 36.437 44.156 -0.66572 0.29449 
4.4 502 76.669 36.349 44.515 -0.66937 0.29739 
4.425 502 79.215 35.966 45.134 -0.67381 0.31014 
4.45 492 68.99 35.809 45.552 -0.67747 0.31535 
4.475 492 70.118 35.819 45.72 -0.67948 0.31502 
4.5 492 70.824 35.646 46.087 -0.68233 0.32074 
4.525 492 70.281 35.579 46.418 -0.68557 0.32297 
4.55 492 69.93 35.517 46.723 -0.68852 0.32501 
4.575 492 69.125 35.288 47.204 -0.692 0.33257 
4.6 492 67.16 35.197 47.569 -0.6953 0.33554 
4.625 492 65.936 35.212 47.587 -0.69563 0.33505 
4.65 492 64.248 35.006 48.142 -0.69994 0.34181 
4.675 492 62.062 34.883 48.548 -0.70326 0.34585 
4.7 502 69.052 34.808 48.817 -0.70548 0.34833 
4.725 502 67.027 34.679 49.062 -0.70692 0.35253 
4.75 502 64.777 34.673 49.226 -0.70862 0.35272 
4.775 502 61.979 34.555 49.589 -0.71137 0.35656 
4.8 502 59.839 34.437 49.978 -0.71434 0.36041 
4.825 515 69.005 34.393 50.235 -0.71659 0.36185 
4.85 515 65.667 34.132 50.654 -0.71834 0.37033 
4.875 515 62.845 34.235 50.669 -0.71953 0.36699 
4.9 515 59.839 33.949 51.366 -0.72375 0.37625 
4.925 529 70.377 33.891 51.591 -0.72541 0.37814 
4.95 529 67.103 33.827 51.693 -0.72577 0.3802 
4.975 529 64.748 33.72 51.961 -0.72732 0.38365 
5 529 61.44 33.69 51.946 -0.72685 0.38463 
5.025 529 57.612 33.55 52.404 -0.72989 0.38912 
5.05 546 69.47 33.298 52.841 -0.73139 0.39722 
5.075 546 65.356 33.215 52.97 -0.73172 0.39986 
5.1 546 61.12 33.201 53.005 -0.7319 0.40031 
5.125 559 69.219 32.97 53.744 -0.73633 0.40768 
5.15 559 64.627 32.924 53.751 -0.73585 0.40917 
5.175 570 69.333 32.868 53.939 -0.73697 0.41094 
5.2 570 64.523 32.725 54.217 -0.7379 0.4155 
5.225 570 59.184 32.485 54.749 -0.73994 0.42308 
5.25 588 70.566 32.436 54.945 -0.74112 0.42466 
5.275 588 65.315 32.316 55.221 -0.74216 0.42842 
5.3 601 71.052 32.095 55.574 -0.74258 0.43538 
5.325 601 66.496 32.19 55.441 -0.74257 0.43239 
5.35 601 61.568 31.997 55.703 -0.74248 0.43845 
5.375 613 66.749 32.01 55.64 -0.74209 0.43804 
5.4 613 62.759 31.749 56.282 -0.74437 0.44623 
5.425 625 67.171 31.727 56.133 -0.7428 0.44692 
5.45 625 62.471 31.757 56.228 -0.744 0.44599 
5.475 639 68.363 31.544 56.339 -0.74219 0.45261 
5.5 639 62.758 31.246 56.961 -0.74352 0.46189 
5.525 639 58.727 31.295 56.595 -0.74108 0.46037 
5.55 657 66.069 31.168 57.077 -0.74345 0.46428 
5.575 657 60.946 31.079 56.828 -0.74014 0.46703 
5.6 671 65.093 30.944 56.963 -0.73942 0.4712 
5.625 671 59.378 30.633 57.737 -0.74148 0.48074 
5.65 690 66.557 30.639 57.452 -0.73922 0.48057 
5.675 690 60.406 30.462 57.465 -0.73681 0.48598 
5.7 714 70.577 30.287 57.434 -0.73404 0.49131 
5.725 714 63.449 30.225 57.667 -0.73505 0.49318 
5.75 731 68.875 30.013 57.901 -0.73383 0.49962 
5.775 731 61.317 30.125 57.791 -0.73458 0.49623 
5.8 752 68.117 29.809 58.235 -0.73346 0.50576 
5.825 752 61.281 29.84 58.027 -0.73227 0.50482 
5.85 771 65.357 29.977 57.356 -0.72889 0.50069 
5.875 780 63.853 29.728 57.563 -0.72687 0.5082 
5.9 780 56.389 29.642 57.383 -0.72413 0.51078 
5.925 780 50.316 29.659 57.77 -0.72749 0.51028 
5.95 780 44.608 29.282 57.039 -0.71589 0.52154 
5.975 780 39.264 29.485 57.327 -0.7213 0.51549 
6 780 34.966 29.583 56.343 -0.71472 0.51256 
6.025 780 30.57 29.497 55.465 -0.70607 0.51514 
6.05 780 27.561 28.981 56.153 -0.70403 0.53048 
6.075 780 24.711 29.216 56.405 -0.7097 0.52352 
6.1 780 22.147 28.872 56.078 -0.70174 0.53371 
6.125 780 19.659 28.799 56.354 -0.70288 0.53585 
6.15 780 17.794 28.797 54.907 -0.69081 0.5359 
6.175 780 16.094 29.094 54.497 -0.6918 0.52713 
6.2 780 14.425 29.225 55.214 -0.69989 0.52325 
6.225 780 12.964 28.876 54.98 -0.69263 0.53358 
6.25 780 12.016 28.838 53.957 -0.68327 0.53472 
6.275 780 10.753 28.771 53.727 -0.68027 0.53667 
6.3 780 9.817 29.329 52.656 -0.679 0.52014 
6.325 780 8.68 29.832 51.25 -0.67311 0.50507 
6.35 780 7.848 28.802 51.514 -0.66094 0.53577 
6.375 780 6.879 29.83 51.416 -0.67463 0.50514 
6.4 780 6.164 30.188 49.697 -0.66295 0.4943 
6.425 780 5.52 29.532 50.152 -0.65853 0.51407 
6.45 780 4.954 30.724 49.131 -0.66424 0.47796 
6.475 780 4.401 30.117 48.547 -0.65062 0.49646 
6.5 780 3.916 30.658 46.402 -0.63533 0.47996 

# MINIMA:
0.600 355.0 3.916 28.771 12.429 -0.74437 0.11857

# MAXIMA:
6.500 2165.4 82.808 41.595 58.235 -0.21372 0.53667

# PEAKS:

# END SPECTRUM


# SPECTRUM:
2

# START TIME:
16:27:51

# END TIME:
16:38:13

# THETA ANGLE:
0.00 ø

# INCIDENCE ANGLE:
60.00 ø

# ACCUMULATION NUMBER:
1

# ELLIPSOMETRIC CONFIGURATION:
+45.00 øModulator
-45.00 øAnalyser

# INTEGRATION TIME:
500 ms

# FIRST POINT:
0.6000 eV

# LAST POINT:
6.5000 eV

# INCREMENT:
0.0250 eV

# NUMBER OF POINTS:
237

# DATA:
eV Hv S0 Psi Delta Is Ic
0.6 1200.2 62.343 40.228 16.2 -0.27513 0.1658 
0.625 1098.6 71.322 40.2 16.55 -0.28087 0.16678 
0.65 997 65.194 40.074 17.039 -0.28871 0.17109 
0.675 997 63.31 39.832 17.516 -0.29609 0.1794 
0.7 997 78.592 40.025 17.616 -0.29809 0.1728 
0.725 895.4 71.859 40.062 18.175 -0.3073 0.17153 
0.75 895.4 74.391 39.805 18.61 -0.31389 0.18034 
0.775 793.8 68.586 39.656 19.135 -0.32211 0.18546 
0.8 596.9 85.449 39.486 19.654 -0.33013 0.1913 
0.825 793.8 82.306 39.454 20.073 -0.3368 0.1924 
0.85 793.8 78.882 39.15 20.501 -0.34295 0.20277 
0.875 508 60.546 38.982 20.914 -0.34912 0.20854 
0.9 609.6 68.307 38.989 21.364 -0.3563 0.2083 
0.925 711.2 69.287 38.9 21.845 -0.3637 0.21134 
0.95 711.2 61.082 38.976 22.148 -0.3687 0.20873 
0.975 514.4 62.663 38.744 22.812 -0.37849 0.21665 
1 812.8 82.148 38.687 23.101 -0.38286 0.2186 
1.025 711.2 63.431 38.607 23.468 -0.38835 0.22132 
1.05 514.4 78.623 38.611 23.844 -0.39424 0.22117 
1.075 812.8 82.578 38.248 24.393 -0.40158 0.23352 
1.1 711.2 67.065 38.136 24.847 -0.40819 0.23733 
1.125 711.2 66.805 38.054 25.306 -0.41495 0.24008 
1.15 628.7 61.793 38.078 25.626 -0.41993 0.23928 
1.175 628.7 65.741 37.886 26.051 -0.4257 0.24577 
1.2 730.3 70.689 37.685 26.663 -0.43419 0.25258 
1.225 533.4 70.396 37.635 26.995 -0.43899 0.25425 
1.25 349.3 60.647 37.389 27.414 -0.44427 0.26257 
1.275 647.7 81.658 37.344 27.749 -0.44907 0.26407 
1.3 552.5 62.874 37.362 28.163 -0.45531 0.26348 
1.325 749.3 73.929 37.179 28.548 -0.4602 0.26964 
1.35 450.9 70.9 36.997 28.926 -0.46494 0.27572 
1.375 825.5 78.599 36.916 29.271 -0.46961 0.27846 
1.4 527.1 60.867 36.781 29.754 -0.476 0.28297 
1.425 1225.6 63.784 36.766 30.03 -0.47993 0.28349 
1.45 1924.1 62.687 36.581 30.475 -0.48542 0.28968 
1.475 780 0 45 0 -0.489592 0.293165 
1.5 453 56.803 36.389 31.097 -0.49333 0.29608 
1.525 564 80.563 36.254 31.442 -0.49752 0.30056 
1.55 506 70.666 36.134 31.679 -0.50021 0.30457 
1.575 541 66.343 35.957 32.151 -0.50586 0.31043 
1.6 541 76.45 35.781 32.515 -0.50992 0.31629 
1.625 496 71.993 35.725 32.803 -0.51361 0.31815 
1.65 496 65.864 35.599 33.174 -0.51798 0.32231 
1.675 486 68.15 35.394 33.54 -0.52174 0.32907 
1.7 477 68.818 35.354 33.872 -0.52605 0.3304 
1.725 467 69.519 35.221 34.113 -0.52847 0.33478 
1.75 459 70.139 35.081 34.458 -0.53222 0.33937 
1.775 450 69.521 34.943 34.763 -0.53541 0.34388 
1.8 437 71.019 34.829 35.098 -0.53912 0.34761 
1.825 437 77.122 34.683 35.378 -0.54183 0.35239 
1.85 425 69.48 34.597 35.659 -0.54494 0.35522 
1.875 425 75.354 34.463 35.953 -0.54785 0.35956 
1.9 414 70.175 34.344 36.238 -0.55071 0.36345 
1.925 414 76.478 34.245 36.507 -0.55348 0.36668 
1.95 404 70.095 34.127 36.845 -0.55698 0.3705 
1.975 404 76.332 33.991 37.038 -0.55842 0.37488 
2 395 69.902 33.889 37.376 -0.56195 0.37821 
2.025 395 71.939 33.797 37.644 -0.56464 0.38116 
2.05 395 70.678 33.685 37.94 -0.5675 0.38477 
2.075 385 69.893 33.569 38.152 -0.56922 0.38853 
2.1 385 73.295 33.487 38.427 -0.572 0.39114 
2.125 385 75.608 33.362 38.745 -0.57492 0.39515 
2.15 385 77.414 33.27 39.022 -0.57757 0.39812 
2.175 378 69.048 33.138 39.3 -0.57986 0.40233 
2.2 378 70.521 33.049 39.595 -0.58269 0.40519 
2.225 378 72.184 32.934 39.904 -0.58544 0.40883 
2.25 378 73.517 32.807 40.207 -0.58795 0.41287 
2.275 378 74.507 32.686 40.581 -0.59135 0.41673 
2.3 378 74.859 32.534 40.898 -0.59371 0.42153 
2.325 378 75.565 32.363 41.265 -0.59641 0.42696 
2.35 378 76.154 32.189 41.588 -0.59849 0.43243 
2.375 378 76.638 32.006 41.914 -0.60047 0.43818 
2.4 378 77.339 31.783 42.194 -0.60142 0.44518 
2.425 370 68.228 31.558 42.359 -0.60095 0.45218 
2.45 370 77.795 31.331 42.52 -0.60036 0.45923 
2.475 370 76.292 31.078 42.49 -0.59726 0.46706 
2.5 357 71.431 30.816 42.249 -0.59161 0.47513 
2.525 357 71.226 30.64 42.042 -0.58728 0.48054 
2.55 357 69.924 30.532 41.798 -0.5833 0.48383 
2.575 357 73.517 30.466 41.535 -0.57956 0.48585 
2.6 357 68.213 30.359 41.504 -0.578 0.4891 
2.625 350 69.862 30.338 41.355 -0.57606 0.48973 
2.65 350 72.207 30.29 41.295 -0.57483 0.49121 
2.675 350 63.044 30.375 41.136 -0.57397 0.48861 
2.7 359 68.668 30.334 41.136 -0.5735 0.48987 
2.725 359 63.673 30.275 41.279 -0.57448 0.49166 
2.75 359 65.839 30.238 41.336 -0.57471 0.4928 
2.775 368 68.874 30.194 41.392 -0.57485 0.49412 
2.8 368 67.21 30.18 41.467 -0.57555 0.49454 
2.825 368 65.96 30.186 41.522 -0.57623 0.49437 
2.85 368 61.94 30.135 41.666 -0.57728 0.49592 
2.875 376 70.065 30.071 41.798 -0.57804 0.49786 
2.9 376 68.144 30.071 41.842 -0.57853 0.49786 
2.925 376 66.226 30.036 41.966 -0.57951 0.49892 
2.95 376 65.416 29.993 42.097 -0.58049 0.50022 
2.975 376 61.696 29.958 42.195 -0.58118 0.50126 
3 376 59.231 29.939 42.217 -0.5812 0.50184 
3.025 386 68.14 29.796 42.48 -0.58244 0.50616 
3.05 386 64.368 29.74 42.591 -0.583 0.50782 
3.075 386 61.028 29.74 42.593 -0.58301 0.50785 
3.1 386 77.145 29.555 42.788 -0.58293 0.5134 
3.125 386 73.861 29.5 42.871 -0.58317 0.51503 
3.15 386 69.307 29.462 42.948 -0.58355 0.51617 
3.175 386 64.798 29.396 42.979 -0.58308 0.51814 
3.2 386 61.061 29.333 42.946 -0.58195 0.52002 
3.225 396 69.631 29.234 42.904 -0.58025 0.52299 
3.25 396 65.148 29.117 42.933 -0.57912 0.52644 
3.275 396 61.109 28.92 42.959 -0.57691 0.53229 
3.3 407 68.179 28.883 42.665 -0.57326 0.53337 
3.325 407 61.689 28.846 42.256 -0.56834 0.53447 
3.35 417 68.419 28.686 42.12 -0.56484 0.53919 
3.375 417 67.37 28.707 41.682 -0.56031 0.53857 
3.4 417 66.285 28.707 41.366 -0.55684 0.53856 
3.425 417 64.227 28.8 40.961 -0.5535 0.53583 
3.45 417 61.569 28.852 40.729 -0.55154 0.53428 
3.475 426 68.263 29.068 40.397 -0.55043 0.52789 
3.5 426 64.429 29.184 40.205 -0.54963 0.52445 
3.525 426 61.064 29.306 40.057 -0.54937 0.52082 
3.55 436 69.013 29.413 39.927 -0.54913 0.51765 
3.575 436 65.487 29.496 39.82 -0.54887 0.51515 
3.6 436 62.976 29.68 39.661 -0.54913 0.50964 
3.625 445 70.346 29.876 39.527 -0.5498 0.50374 
3.65 445 68.026 30.019 39.479 -0.55083 0.49943 
3.675 445 66.071 30.207 39.4 -0.55198 0.49372 
3.7 445 64.15 30.432 39.393 -0.55434 0.48687 
3.725 445 62.631 30.646 39.397 -0.55667 0.48036 
3.75 445 60.807 30.849 39.464 -0.55961 0.47413 
3.775 445 58.07 31.127 39.46 -0.56247 0.46556 
3.8 458 68.723 31.365 39.61 -0.5667 0.45818 
3.825 458 64.344 31.602 39.736 -0.5706 0.45081 
3.85 458 59.83 31.846 39.908 -0.57511 0.4432 
3.875 472 68.156 32.084 40.186 -0.58079 0.43574 
3.9 472 62.822 32.38 40.412 -0.58638 0.42641 
3.925 484 69.666 32.657 40.779 -0.59345 0.41765 
3.95 484 64.947 32.924 41.121 -0.60008 0.40915 
3.975 484 60.748 33.166 41.546 -0.60743 0.40143 
4 496 68.404 33.424 41.986 -0.61508 0.39316 
4.025 496 64.29 33.64 42.451 -0.62258 0.38622 
4.05 496 60.699 33.857 43.008 -0.63116 0.37922 
4.075 508 68.701 34.111 43.502 -0.63925 0.37101 
4.1 508 64.676 34.285 44.166 -0.64857 0.36536 
4.125 508 61.249 34.563 44.846 -0.65892 0.35632 
4.15 519 68.577 34.799 45.561 -0.66921 0.3486 
4.175 519 66.321 34.97 46.375 -0.67995 0.34301 
4.2 519 65.194 35.204 47.065 -0.68974 0.33533 
4.225 519 64.008 35.382 48.193 -0.70378 0.32946 
4.25 519 63.001 35.507 49.04 -0.71409 0.32532 
4.275 519 61.21 35.601 50.111 -0.72636 0.32224 
4.3 506 69.444 35.624 51.285 -0.73885 0.32148 
4.325 506 74.846 35.827 51.87 -0.74662 0.31476 
4.35 497 69.612 35.695 52.986 -0.75674 0.31912 
4.375 497 73.684 35.343 54.082 -0.76428 0.33076 
4.4 497 77.313 35.272 54.814 -0.77062 0.33307 
4.425 497 80.194 35.122 55.348 -0.7742 0.33802 
4.45 486 69.484 35.07 55.69 -0.77688 0.33972 
4.475 486 71.124 34.78 56.604 -0.78232 0.34922 
4.5 486 72.244 34.603 56.972 -0.7838 0.355 
4.525 486 73.509 34.334 57.81 -0.78831 0.36377 
4.55 486 72.718 34.322 57.961 -0.78948 0.36416 
4.575 486 71.85 34.239 58.272 -0.79125 0.36685 
4.6 486 71.836 33.98 58.918 -0.79384 0.37526 
4.625 486 69.9 33.867 59.466 -0.79711 0.3789 
4.65 486 68.302 33.856 59.548 -0.79764 0.37927 
4.675 486 66.668 33.708 60.062 -0.80012 0.38403 
4.7 486 63.836 33.508 60.627 -0.80227 0.39046 
4.725 486 62.692 33.603 60.455 -0.80203 0.38742 
4.75 497 70.977 33.532 60.753 -0.80354 0.3897 
4.775 497 68.511 33.32 61.414 -0.80613 0.3965 
4.8 497 64.558 33.182 62.025 -0.80906 0.40093 
4.825 497 62.427 33.249 61.814 -0.8083 0.39877 
4.85 497 58.94 33.119 62.322 -0.81051 0.40293 
4.875 510 68.879 33.02 62.84 -0.81307 0.4061 
4.9 510 66.157 32.797 63.609 -0.81573 0.41321 
4.925 510 62.364 32.77 63.732 -0.81625 0.41406 
4.95 510 60.077 32.598 64.221 -0.8174 0.41952 
4.975 523 69.332 32.438 64.645 -0.81817 0.42458 
5 523 66.135 32.445 64.779 -0.81917 0.42437 
5.025 523 63.445 32.406 64.849 -0.81912 0.42559 
5.05 535 70.273 32.393 65.051 -0.82029 0.42601 
5.075 535 66.289 32.082 65.941 -0.82185 0.43581 
5.1 535 62.176 32.086 65.824 -0.82115 0.43568 
5.125 547 69.396 31.906 66.345 -0.82196 0.44132 
5.15 547 64.103 31.777 66.851 -0.82327 0.44535 
5.175 547 60.126 31.722 66.696 -0.82153 0.44706 
5.2 561 67.781 31.539 67.733 -0.82514 0.45277 
5.225 561 62.74 31.765 67.003 -0.82403 0.44572 
5.25 573 69.191 31.31 68.399 -0.82562 0.45989 
5.275 573 63.994 31.363 68.062 -0.82446 0.45825 
5.3 586 70.767 31.274 68.626 -0.82637 0.46099 
5.325 586 65.622 31.156 68.741 -0.82524 0.46464 
5.35 586 60.508 31.166 68.661 -0.82494 0.46434 
5.375 600 67.948 31.103 68.641 -0.82387 0.46629 
5.4 600 63.839 31.023 68.597 -0.82241 0.46876 
5.425 613 68.687 30.793 69.639 -0.82458 0.47584 
5.45 613 64.33 30.662 69.787 -0.82332 0.47984 
5.475 613 59.596 30.45 70.25 -0.82237 0.48635 
5.5 632 69.339 30.433 70.252 -0.82212 0.48685 
5.525 632 63.578 30.409 70.258 -0.82176 0.48758 
5.55 646 69.175 30.071 71.516 -0.82252 0.49786 
5.575 646 63.429 30.152 70.942 -0.82106 0.49538 
5.6 662 69.817 30.087 70.328 -0.81691 0.49736 
5.625 662 63.268 29.809 71.157 -0.81644 0.50577 
5.65 675 66.987 29.862 70.858 -0.81586 0.50415 
5.675 675 61.022 29.717 70.81 -0.81321 0.50852 
5.7 692 67.013 29.528 71.379 -0.81277 0.51421 
5.725 692 60.48 29.457 71.023 -0.80985 0.51632 
5.75 709 66.122 29.27 71.493 -0.80889 0.5219 
5.775 726 70.2 29.247 71.332 -0.80773 0.5226 
5.8 726 62.622 29.087 71.915 -0.80768 0.52734 
5.825 742 66.437 29.155 70.619 -0.80269 0.52532 
5.85 742 59.678 29.015 70.678 -0.80055 0.52947 
5.875 765 66.11 28.804 71.366 -0.80014 0.5357 
5.9 765 58.583 28.795 70.765 -0.79711 0.53596 
5.925 780 60.477 28.642 70.162 -0.79143 0.54048 
5.95 780 52.467 28.454 70.89 -0.79163 0.54599 
5.975 780 46.401 28.694 70.621 -0.79462 0.53894 
6 780 41.27 28.436 69.953 -0.78671 0.54651 
6.025 780 36.182 29.002 68.284 -0.7879 0.52985 
6.05 780 32.342 27.857 69.464 -0.77372 0.56333 
6.075 780 28.863 27.702 69.337 -0.77022 0.56779 
6.1 780 26.023 28.82 67.973 -0.78304 0.53524 
6.125 780 22.857 27.706 68.427 -0.76559 0.56766 
6.15 780 20.541 28.255 68.012 -0.77332 0.55179 
6.175 780 18.628 28.097 66.579 -0.76247 0.55638 
6.2 780 16.938 27.953 67.488 -0.76502 0.56055 
6.225 780 15.352 28.042 66.572 -0.76144 0.55798 
6.25 780 13.837 28.059 65.173 -0.75345 0.55749 
6.275 780 12.602 28.224 65.671 -0.75937 0.5527 
6.3 780 11.247 27.526 65.605 -0.74649 0.57284 
6.325 780 10.229 28.478 63.382 -0.7494 0.5453 
6.35 780 8.973 27.963 64.183 -0.74564 0.56026 
6.375 780 7.997 28.444 61.699 -0.73748 0.54629 
6.4 780 7.157 28.88 61.975 -0.74663 0.53348 
6.425 780 6.53 28.699 59.608 -0.72666 0.53881 
6.45 780 5.638 29.431 59.82 -0.73991 0.51709 
6.475 780 5.172 29.516 58.658 -0.73233 0.51456 
6.5 780 4.461 30.587 57.624 -0.7399 0.48215 

# MINIMA:
0.600 349.3 0.000 27.526 0.000 -0.82637 0.00000

# MAXIMA:
6.500 1924.1 85.449 45.000 71.915 0.00000 0.57284

# PEAKS:

# END SPECTRUM


# SPECTRUM:
3

# START TIME:
16:38:55

# END TIME:
16:49:14

# THETA ANGLE:
0.00 ø

# INCIDENCE ANGLE:
65.00 ø

# ACCUMULATION NUMBER:
1

# ELLIPSOMETRIC CONFIGURATION:
+45.00 øModulator
-45.00 øAnalyser

# INTEGRATION TIME:
500 ms

# FIRST POINT:
0.6000 eV

# LAST POINT:
6.5000 eV

# INCREMENT:
0.0250 eV

# NUMBER OF POINTS:
237

# DATA:
eV Hv S0 Psi Delta Is Ic
0.6 1200.2 63.21 39.209 20.709 -0.34643 0.20076 
0.625 1098.6 74.15 39.057 21.2 -0.35387 0.20595 
0.65 997 68.523 39.112 21.729 -0.36243 0.2041 
0.675 997 67.304 38.664 22.49 -0.37321 0.21936 
0.7 895.4 66.266 38.792 22.84 -0.37908 0.215 
0.725 895.4 77.733 38.331 23.707 -0.39122 0.2307 
0.75 793.8 62.337 38.342 24.224 -0.39928 0.23032 
0.775 793.8 74.059 38.163 24.751 -0.4068 0.2364 
0.8 495.3 63.518 38.123 25.276 -0.41474 0.23774 
0.825 692.2 66.037 37.941 25.979 -0.42482 0.24392 
0.85 692.2 62.01 37.636 26.584 -0.43281 0.25421 
0.875 495.3 60.375 37.741 26.983 -0.43925 0.25068 
0.9 596.9 68.064 37.575 27.547 -0.44703 0.25628 
0.925 698.5 68.951 37.444 28.035 -0.45375 0.26069 
0.95 800.1 81.791 37.286 28.706 -0.46301 0.26603 
0.975 508 63.488 37.112 29.404 -0.47248 0.27188 
1 704.9 61.457 37.175 29.657 -0.47646 0.26976 
1.025 704.9 64.171 36.914 30.428 -0.48642 0.27852 
1.05 508 79.216 36.804 30.885 -0.49246 0.28219 
1.075 704.9 61.456 36.668 31.473 -0.50017 0.28676 
1.1 704.9 67.902 36.591 32.105 -0.50874 0.28932 
1.125 704.9 67.704 36.378 32.652 -0.51528 0.29644 
1.15 628.7 62.872 36.389 33.115 -0.52183 0.29609 
1.175 628.7 66.75 36.154 33.747 -0.52925 0.3039 
1.2 730.3 72.124 35.942 34.333 -0.53604 0.31094 
1.225 533.4 71.765 35.998 34.701 -0.54141 0.30909 
1.25 349.3 62.266 35.78 35.253 -0.54756 0.3163 
1.275 647.7 82.32 35.592 35.839 -0.55422 0.32252 
1.3 552.5 63.195 35.468 36.284 -0.55933 0.32662 
1.325 749.3 74.548 35.343 36.837 -0.5658 0.33075 
1.35 450.9 72.332 35.178 37.365 -0.57157 0.33617 
1.375 825.5 79.46 35.086 37.799 -0.57656 0.3392 
1.4 527.1 61.153 34.879 38.333 -0.58192 0.34598 
1.425 1225.6 65.193 34.828 38.773 -0.58718 0.34766 
1.45 1924.1 64.192 34.657 39.323 -0.59284 0.35326 
1.475 780 0 45 0 -0.596563 0.354955 
1.5 457 62.535 34.503 40.054 -0.60079 0.35826 
1.525 554 71.682 34.182 40.847 -0.60796 0.36869 
1.55 496 61.992 34.124 41.094 -0.6105 0.37059 
1.575 540 66.247 34.041 41.428 -0.61385 0.37327 
1.6 540 76.675 33.878 41.945 -0.61867 0.37856 
1.625 494 70.521 33.756 42.399 -0.62301 0.3825 
1.65 494 64.757 33.596 42.865 -0.62708 0.38766 
1.675 494 77.617 33.544 43.141 -0.62985 0.38932 
1.7 478 70.164 33.346 43.665 -0.6341 0.39567 
1.725 468 70.206 33.242 44.093 -0.63804 0.39899 
1.75 459 69.374 33.084 44.572 -0.64196 0.40407 
1.775 459 80.506 32.991 44.971 -0.64556 0.40702 
1.8 437 70.611 32.818 45.386 -0.64845 0.41255 
1.825 437 76.325 32.689 45.783 -0.65153 0.41664 
1.85 425 68.691 32.563 46.127 -0.654 0.42064 
1.875 425 74.295 32.415 46.541 -0.65695 0.42529 
1.9 415 70.885 32.355 46.885 -0.66002 0.4272 
1.925 415 76.634 32.202 47.337 -0.66319 0.43202 
1.95 403 68.142 32.085 47.631 -0.665 0.4357 
1.975 403 74.433 31.965 48.043 -0.66798 0.43948 
2 395 69.401 31.822 48.429 -0.67037 0.44396 
2.025 395 71.262 31.7 48.869 -0.67349 0.44775 
2.05 395 70.192 31.622 49.157 -0.67552 0.45018 
2.075 386 70.4 31.51 49.556 -0.67821 0.45368 
2.1 386 73.576 31.391 49.961 -0.68084 0.45736 
2.125 386 75.831 31.252 50.344 -0.68292 0.46168 
2.15 386 78.046 31.146 50.77 -0.68578 0.46498 
2.175 379 70.166 31.059 51.006 -0.68698 0.46766 
2.2 379 71.421 30.939 51.476 -0.68999 0.47135 
2.225 379 73.296 30.822 51.907 -0.69258 0.47496 
2.25 379 74.424 30.694 52.38 -0.69535 0.47886 
2.275 379 75.557 30.57 52.787 -0.69748 0.48268 
2.3 379 75.833 30.426 53.344 -0.70064 0.48707 
2.325 379 76.836 30.227 53.846 -0.70243 0.49314 
2.35 379 77.094 30.041 54.276 -0.70365 0.49876 
2.375 379 77.526 29.85 54.717 -0.7048 0.50452 
2.4 372 68.006 29.642 55.03 -0.70448 0.5108 
2.425 372 70.336 29.377 55.411 -0.70384 0.5187 
2.45 365 69.696 29.119 55.537 -0.70102 0.52639 
2.475 365 68.328 28.844 55.719 -0.69834 0.53453 
2.5 355 69.99 28.567 55.332 -0.69082 0.54267 
2.525 355 69.933 28.334 55.312 -0.687 0.5495 
2.55 355 68.117 28.208 54.899 -0.68158 0.55315 
2.575 355 72.287 28.034 54.858 -0.67846 0.55822 
2.6 355 67.149 27.997 54.675 -0.67635 0.55928 
2.625 355 79.388 27.837 54.693 -0.67394 0.56391 
2.65 348 70.829 27.878 54.516 -0.67313 0.56271 
2.675 348 61.453 27.938 54.305 -0.6723 0.561 
2.7 358 68.78 27.832 54.536 -0.67255 0.56405 
2.725 358 63.919 27.87 54.451 -0.67245 0.56294 
2.75 358 66.163 27.807 54.664 -0.67322 0.56477 
2.775 367 68.792 27.767 54.71 -0.67295 0.56593 
2.8 367 67.435 27.734 54.855 -0.67363 0.56686 
2.825 367 65.972 27.785 54.75 -0.67358 0.56539 
2.85 367 61.985 27.747 54.996 -0.675 0.56649 
2.875 367 60.446 27.729 55.134 -0.67585 0.56701 
2.9 376 70.008 27.613 55.474 -0.67672 0.57035 
2.925 376 68.136 27.595 55.595 -0.67742 0.57086 
2.95 376 66.83 27.578 55.705 -0.67804 0.57133 
2.975 376 62.737 27.545 55.901 -0.67906 0.57228 
3 376 60.277 27.447 56.075 -0.67882 0.5751 
3.025 385 68.333 27.354 56.365 -0.67957 0.57775 
3.05 385 64.889 27.363 56.298 -0.67919 0.57749 
3.075 385 61.833 27.295 56.557 -0.68008 0.57943 
3.1 385 77.319 27.143 56.936 -0.68046 0.58374 
3.125 385 74.534 27.028 57.173 -0.6803 0.58701 
3.15 385 69.76 26.99 57.277 -0.68045 0.58806 
3.175 385 65.487 26.927 57.302 -0.67954 0.58985 
3.2 385 61.475 26.85 57.369 -0.67872 0.59202 
3.225 393 67.239 26.768 57.29 -0.6767 0.59431 
3.25 393 63.348 26.667 57.348 -0.67536 0.59715 
3.275 401 68.635 26.462 57.444 -0.67247 0.60287 
3.3 401 62.836 26.361 57.258 -0.66929 0.60567 
3.325 412 68.671 26.197 57.093 -0.66511 0.61024 
3.35 412 63.643 26.036 56.962 -0.66124 0.61468 
3.375 412 62.784 25.977 56.621 -0.65762 0.61628 
3.4 412 61.749 25.92 56.263 -0.65388 0.61785 
3.425 412 59.495 25.904 55.897 -0.65079 0.61829 
3.45 423 69.128 26.053 55.31 -0.64888 0.61419 
3.475 423 65.548 26.112 55.113 -0.64837 0.61256 
3.5 423 62.055 26.14 54.93 -0.6474 0.61181 
3.525 433 69.285 26.228 54.643 -0.64665 0.60936 
3.55 433 65.98 26.301 54.42 -0.64612 0.60735 
3.575 433 62.62 26.396 54.238 -0.64628 0.6047 
3.6 433 60.155 26.513 53.987 -0.64622 0.60145 
3.625 443 68.1 26.66 53.632 -0.64579 0.59733 
3.65 443 65.614 26.852 53.508 -0.64796 0.59195 
3.675 443 63.737 26.982 53.261 -0.64803 0.58828 
3.7 443 62.005 27.148 53.196 -0.6502 0.58358 
3.725 443 60.214 27.371 52.926 -0.6515 0.57727 
3.75 453 68.509 27.569 52.873 -0.6542 0.57162 
3.775 453 65.589 27.781 52.691 -0.65598 0.56552 
3.8 453 61.956 28.015 52.689 -0.65962 0.55875 
3.825 463 68.5 28.296 52.644 -0.66354 0.55061 
3.85 463 63.252 28.564 52.646 -0.66763 0.54276 
3.875 473 67.713 28.797 52.85 -0.67294 0.53591 
3.9 473 61.808 29.091 52.889 -0.67763 0.52723 
3.925 484 67.479 29.426 53.028 -0.68376 0.51725 
3.95 484 62.757 29.726 53.181 -0.68942 0.50827 
3.975 494 68.044 29.987 53.506 -0.69603 0.50039 
4 494 63.914 30.32 53.684 -0.70226 0.49031 
4.025 494 59.78 30.62 53.986 -0.7091 0.48114 
4.05 507 68.404 30.919 54.448 -0.71728 0.47196 
4.075 507 64.963 31.195 54.844 -0.72449 0.46345 
4.1 507 61.087 31.642 55.195 -0.73344 0.44957 
4.125 518 67.806 31.88 55.842 -0.74222 0.44215 
4.15 518 64.56 32.199 56.375 -0.75094 0.4321 
4.175 518 62.356 32.539 56.92 -0.75989 0.42137 
4.2 518 60.913 32.919 57.627 -0.77059 0.40932 
4.225 518 59.923 33.215 58.601 -0.78234 0.39988 
4.25 518 59.033 33.579 59.508 -0.79412 0.3882 
4.275 532 69.934 33.889 60.602 -0.80652 0.37819 
4.3 507 70.233 34.186 61.691 -0.81843 0.36856 
4.325 507 75.362 34.488 62.546 -0.82831 0.35877 
4.35 498 70.312 34.44 63.88 -0.83756 0.36032 
4.375 498 74.759 34.592 64.824 -0.84593 0.35538 
4.4 490 69.909 34.498 65.696 -0.85082 0.35844 
4.425 490 73.03 34.206 67.338 -0.85806 0.36794 
4.45 490 75.452 34.173 68.01 -0.86181 0.36901 
4.475 490 77.581 34.037 68.691 -0.86425 0.3734 
4.5 482 69.919 33.871 69.354 -0.86605 0.37877 
4.525 482 71.512 33.673 70.273 -0.86869 0.38515 
4.55 482 72.11 33.588 70.732 -0.87007 0.38792 
4.575 482 71.773 33.319 71.89 -0.87254 0.39654 
4.6 482 71.369 33.302 71.549 -0.8706 0.39708 
4.625 482 69.771 33.162 71.985 -0.87093 0.40157 
4.65 482 68.643 33.134 72.06 -0.87093 0.40246 
4.675 482 67.097 32.907 73.268 -0.8736 0.40969 
4.7 482 64.914 32.884 73.291 -0.87339 0.41043 
4.725 482 62.782 32.755 73.656 -0.87326 0.41453 
4.75 482 60.788 32.727 73.753 -0.8733 0.41543 
4.775 492 68.239 32.594 74.472 -0.87456 0.41963 
4.8 492 66.169 32.467 75.539 -0.87712 0.42367 
4.825 492 62.692 32.413 75.433 -0.87593 0.42536 
4.85 492 60.034 32.321 75.767 -0.8759 0.42829 
4.875 504 69.504 32.231 76.514 -0.87741 0.43113 
4.9 504 65.9 32.181 76.802 -0.87773 0.4327 
4.925 504 63.584 32.223 76.01 -0.87542 0.43136 
4.95 504 60.76 32.088 76.578 -0.87556 0.43559 
4.975 517 70.669 31.995 77.384 -0.87702 0.43852 
5 517 67.365 31.844 78.095 -0.87712 0.44325 
5.025 517 63.665 31.853 77.628 -0.87572 0.44296 
5.05 517 60.251 31.794 77.861 -0.87559 0.44483 
5.075 530 68.797 31.595 78.55 -0.87474 0.45104 
5.1 530 64.063 31.509 79.085 -0.87502 0.45372 
5.125 530 60.135 31.532 78.704 -0.87424 0.45301 
5.15 545 69.86 31.422 79.434 -0.87467 0.45643 
5.175 545 64.573 31.399 78.562 -0.87174 0.45712 
5.2 556 69.459 31.348 79.543 -0.87383 0.4587 
5.225 556 65.804 31.097 80.791 -0.87314 0.46647 
5.25 556 61.053 31.282 79.124 -0.87159 0.46075 
5.275 571 69.482 31.124 79.871 -0.87118 0.46564 
5.3 571 64.477 31.095 80.073 -0.87126 0.46654 
5.325 571 60.047 30.972 79.985 -0.86904 0.47033 
5.35 586 68.217 30.759 80.835 -0.86775 0.47688 
5.375 586 63.336 30.622 81.463 -0.86696 0.4811 
5.4 598 69.231 30.626 81.036 -0.86604 0.48096 
5.425 598 63.708 30.751 80.091 -0.86572 0.47713 
5.45 598 59.624 30.587 80.462 -0.86397 0.48216 
5.475 614 67.444 30.233 82.132 -0.86187 0.49295 
5.5 614 62.254 30.363 80.206 -0.85958 0.48898 
5.525 629 68.844 30.244 81.246 -0.86012 0.49259 
5.55 629 63.235 30.233 80.157 -0.85725 0.49295 
5.575 644 69.284 30.12 80.303 -0.8557 0.49638 
5.6 644 63.814 30.029 79.443 -0.85186 0.49913 
5.625 659 68.98 29.895 79.879 -0.85074 0.50317 
5.65 659 63.069 29.743 80.239 -0.84903 0.50775 
5.675 676 69.42 29.609 81.271 -0.84917 0.51177 
5.7 676 61.876 29.487 81.128 -0.84668 0.51543 
5.725 695 69.354 29.559 79.059 -0.84263 0.51327 
5.75 695 63.174 29.466 78.589 -0.83963 0.51605 
5.775 709 65.15 29.18 79.651 -0.83752 0.52457 
5.8 722 67.131 29.187 80.47 -0.83975 0.52436 
5.825 722 60.223 29.347 78.213 -0.83639 0.5196 
5.85 743 66.429 29.108 77.955 -0.83133 0.52671 
5.875 743 58.93 28.895 78.369 -0.82873 0.53302 
5.9 766 65.548 28.906 77.383 -0.82587 0.5327 
5.925 766 58.199 28.685 77.32 -0.82163 0.53922 
5.95 780 58.523 29.076 74.99 -0.82046 0.52768 
5.975 780 51.737 28.709 76.452 -0.81918 0.5385 
6 780 46.114 28.251 76.264 -0.81005 0.55192 
6.025 780 41.075 28.489 75.681 -0.81242 0.54495 
6.05 780 36.433 28.362 75.671 -0.81004 0.54866 
6.075 780 32.635 28.292 75.548 -0.80827 0.55072 
6.1 780 29.417 28.643 72.805 -0.80377 0.54046 
6.125 780 25.984 28.402 73.125 -0.80077 0.5475 
6.15 780 23.559 28.512 72.078 -0.7982 0.54428 
6.175 780 21.098 28.633 71.623 -0.79829 0.54074 
6.2 780 19.168 28.604 70.668 -0.79325 0.54159 
6.225 780 17.194 28.417 70.994 -0.79146 0.54706 
6.25 780 15.615 27.99 70.259 -0.78013 0.55948 
6.275 780 14.108 28.228 69.283 -0.77956 0.55259 
6.3 780 12.645 28.447 68.173 -0.77761 0.54619 
6.325 780 11.488 28.535 66.98 -0.7725 0.54361 
6.35 780 10.408 28.573 66.299 -0.7692 0.54251 
6.375 780 9.255 28.042 67.137 -0.76465 0.55799 
6.4 780 8.193 28.963 65.497 -0.77105 0.53102 
6.425 780 7.291 28.639 65.345 -0.76461 0.54056 
6.45 780 6.366 28.582 64.363 -0.7575 0.54225 
6.475 780 5.74 29.861 62.561 -0.76643 0.50421 
6.5 780 4.989 29.437 63.045 -0.76304 0.51692 

# MINIMA:
0.600 348.0 0.000 25.904 0.000 -0.87773 0.00000

# MAXIMA:
6.500 1924.1 82.320 45.000 82.132 0.00000 0.61829

# PEAKS:

# END SPECTRUM


# SPECTRUM:
4

# START TIME:
16:49:57

# END TIME:
17:00:15

# THETA ANGLE:
0.00 ø

# INCIDENCE ANGLE:
70.00 ø

# ACCUMULATION NUMBER:
1

# ELLIPSOMETRIC CONFIGURATION:
+45.00 øModulator
-45.00 øAnalyser

# INTEGRATION TIME:
500 ms

# FIRST POINT:
0.6000 eV

# LAST POINT:
6.5000 eV

# INCREMENT:
0.0250 eV

# NUMBER OF POINTS:
237

# DATA:
eV Hv S0 Psi Delta Is Ic
0.6 1301.8 69.235 36.993 27.953 -0.45056 0.27587 
0.625 1104.9 69.826 37.243 28.227 -0.45574 0.26748 
0.65 1003.3 64.493 36.776 29.369 -0.47036 0.28316 
0.675 1003.3 63.664 36.802 29.844 -0.4774 0.28229 
0.7 901.7 63.861 37.206 30.062 -0.48251 0.26872 
0.725 901.7 76.102 36.711 31.206 -0.49658 0.28532 
0.75 901.7 79.771 36.056 32.371 -0.50951 0.30716 
0.775 800.1 74.584 36.33 32.678 -0.51538 0.29804 
0.8 501.7 66.022 36.248 33.378 -0.52469 0.30078 
0.825 698.5 66.909 35.662 34.774 -0.54031 0.3202 
0.85 698.5 62.272 35.736 35.241 -0.54711 0.31776 
0.875 501.7 64.418 35.565 35.779 -0.55323 0.32343 
0.9 603.3 71.451 35.733 36.233 -0.56041 0.31787 
0.925 704.9 72.061 35.428 37.217 -0.57139 0.32794 
0.95 704.9 62.84 35.397 37.911 -0.58024 0.32898 
0.975 508 62.999 35.401 38.421 -0.58687 0.32885 
1 704.9 61.039 34.997 39.432 -0.59683 0.3421 
1.025 704.9 63.674 34.725 40.308 -0.60573 0.35103 
1.05 508 79.392 34.772 40.805 -0.61228 0.34948 
1.075 806.5 83.293 34.524 41.644 -0.62057 0.35758 
1.1 704.9 66.832 34.396 42.474 -0.62952 0.36176 
1.125 704.9 66.415 34.559 42.791 -0.6347 0.35645 
1.15 628.7 62.129 34.215 43.735 -0.64291 0.36764 
1.175 628.7 66.169 34.082 44.489 -0.65049 0.37195 
1.2 730.3 71.633 33.897 45.218 -0.65715 0.37793 
1.225 533.4 72.277 33.875 45.733 -0.66278 0.37864 
1.25 349.3 60.956 33.755 46.362 -0.66867 0.38253 
1.275 635 79.093 33.497 47.21 -0.67548 0.39084 
1.3 546.1 60.476 33.399 47.926 -0.68224 0.39399 
1.325 743 72.81 33.263 48.428 -0.68621 0.39833 
1.35 444.5 68.09 33.003 49.411 -0.69377 0.40664 
1.375 844.6 83.262 32.981 49.754 -0.69709 0.40734 
1.4 546.1 64.046 32.967 50.304 -0.70256 0.40779 
1.425 1244.6 64.905 32.675 51.143 -0.70775 0.41707 
1.45 2044.7 64.341 32.511 51.831 -0.71266 0.42226 
1.475 780 0 45 0 -0.71593 0.423452 
1.5 452 59.436 32.392 52.685 -0.71952 0.42604 
1.525 555 76.042 32.094 53.687 -0.72539 0.43542 
1.55 503 71.221 32.018 54.029 -0.72763 0.43781 
1.575 539 66.937 31.893 54.611 -0.73139 0.44172 
1.6 539 75.41 31.863 55.017 -0.73468 0.44267 
1.625 493 70.97 31.653 55.715 -0.73818 0.44924 
1.65 493 64.544 31.607 56.219 -0.74198 0.45067 
1.675 493 77.75 31.379 57.027 -0.74587 0.45776 
1.7 478 71.089 31.257 57.537 -0.7485 0.46154 
1.725 468 70.54 31.145 58.007 -0.75085 0.46499 
1.75 459 69.206 31.023 58.551 -0.75356 0.46877 
1.775 451 70.192 30.86 59.123 -0.75583 0.47377 
1.8 436 69.565 30.802 59.648 -0.75911 0.47557 
1.825 436 74.765 30.672 60.265 -0.76197 0.47955 
1.85 427 71.339 30.602 60.491 -0.76266 0.48169 
1.875 427 76.53 30.443 61.187 -0.76549 0.48655 
1.9 415 70.498 30.343 61.581 -0.76688 0.48958 
1.925 415 76.606 30.156 62.363 -0.76962 0.49527 
1.95 405 70.543 30.067 62.68 -0.77047 0.49796 
1.975 405 77.204 29.966 63.259 -0.77288 0.50102 
2 395 69.89 29.825 63.897 -0.77494 0.50527 
2.025 395 71.498 29.741 64.359 -0.77664 0.5078 
2.05 395 70.542 29.644 64.888 -0.77847 0.51073 
2.075 386 71.06 29.565 65.23 -0.77936 0.51309 
2.1 386 74.408 29.45 65.825 -0.78118 0.51652 
2.125 386 77.062 29.348 66.343 -0.78261 0.51959 
2.15 386 78.711 29.254 66.931 -0.78453 0.52237 
2.175 378 69.805 29.147 67.379 -0.7853 0.52558 
2.2 378 71.157 29.084 67.876 -0.78704 0.52743 
2.225 378 72.818 28.949 68.547 -0.78842 0.53143 
2.25 378 74.284 28.873 69.156 -0.79034 0.53368 
2.275 378 75.502 28.758 69.805 -0.79168 0.53707 
2.3 378 75.41 28.598 70.533 -0.79249 0.54176 
2.325 378 76.41 28.453 71.224 -0.7932 0.546 
2.35 378 77.369 28.283 71.73 -0.79245 0.55097 
2.375 378 77.873 28.129 72.32 -0.79227 0.55546 
2.4 378 78.379 27.863 72.919 -0.7899 0.56316 
2.425 370 69.406 27.658 73.377 -0.78794 0.56904 
2.45 370 78.793 27.35 73.892 -0.78409 0.57786 
2.475 370 77.342 27.076 74.225 -0.78005 0.58562 
2.5 353 70.25 26.727 73.624 -0.77078 0.59547 
2.525 353 70.444 26.552 73.018 -0.76485 0.60037 
2.55 353 68.471 26.408 72.428 -0.75953 0.60437 
2.575 353 72.681 26.2 72.663 -0.7563 0.61014 
2.6 353 67.077 26.115 72.58 -0.75423 0.61249 
2.625 346 69.049 26.013 72.764 -0.75289 0.61531 
2.65 346 71.393 25.995 72.375 -0.75091 0.61581 
2.675 346 61.633 26.117 71.523 -0.74977 0.61244 
2.7 356 69.199 26.003 71.963 -0.74934 0.61558 
2.725 356 64.36 25.987 72.223 -0.75012 0.61602 
2.75 356 66.813 25.946 72.391 -0.74998 0.61714 
2.775 364 68.259 25.936 72.461 -0.75006 0.61742 
2.8 364 66.536 25.868 73.002 -0.75086 0.6193 
2.825 364 65.228 25.907 72.914 -0.75131 0.61822 
2.85 364 61.503 25.918 73.018 -0.75197 0.61791 
2.875 364 59.031 25.964 72.717 -0.75169 0.61666 
2.9 372 67.124 25.832 73.573 -0.75237 0.62027 
2.925 372 65.703 25.806 73.817 -0.75277 0.62098 
2.95 372 64.707 25.801 74.031 -0.75346 0.62113 
2.975 372 61.052 25.771 74.092 -0.75307 0.62195 
3 381 69.585 25.664 74.759 -0.75327 0.62487 
3.025 381 66.746 25.662 74.662 -0.75288 0.62492 
3.05 381 63.26 25.62 74.913 -0.7529 0.62605 
3.075 381 60.211 25.629 74.798 -0.75269 0.6258 
3.1 381 75.335 25.424 76.144 -0.75291 0.63137 
3.125 381 72.441 25.375 76.193 -0.75202 0.6327 
3.15 381 67.969 25.336 76.456 -0.75201 0.63376 
3.175 381 63.428 25.244 76.792 -0.75108 0.63625 
3.2 381 59.499 25.191 76.526 -0.7491 0.63768 
3.225 391 68.18 25.07 76.562 -0.74659 0.64092 
3.25 391 64.856 24.956 76.58 -0.74416 0.64397 
3.275 391 60.207 24.772 77.445 -0.74272 0.64885 
3.3 403 68.732 24.641 77.22 -0.73915 0.65235 
3.325 403 61.357 24.509 76.659 -0.73455 0.65582 
3.35 413 68.48 24.288 77.278 -0.73142 0.66164 
3.375 413 67.905 24.145 77.011 -0.72742 0.66537 
3.4 413 66.655 24.08 76.696 -0.72503 0.66704 
3.425 413 64.388 24.033 75.973 -0.72174 0.66826 
3.45 413 61.632 23.983 76.093 -0.72098 0.66957 
3.475 422 68.683 24.001 75.767 -0.72036 0.6691 
3.5 422 64.759 24.104 74.934 -0.71994 0.66643 
3.525 422 61.017 24.128 74.882 -0.7203 0.66581 
3.55 432 69.212 24.152 74.551 -0.7197 0.66519 
3.575 432 65.889 24.162 74.595 -0.72009 0.66491 
3.6 432 62.707 24.26 73.966 -0.72003 0.66237 
3.625 432 60.343 24.329 73.656 -0.72043 0.66056 
3.65 442 68.698 24.378 73.476 -0.72086 0.65927 
3.675 442 66.885 24.532 73.186 -0.72315 0.65522 
3.7 442 64.341 24.645 72.779 -0.72404 0.65223 
3.725 442 62.728 24.817 72.429 -0.72638 0.64766 
3.75 442 60.304 24.985 72.125 -0.72874 0.6432 
3.775 452 68.101 25.184 71.814 -0.73168 0.63786 
3.8 452 64.499 25.371 71.69 -0.73509 0.63282 
3.825 461 70.029 25.57 71.567 -0.73874 0.62741 
3.85 461 64.835 25.807 71.19 -0.74199 0.62095 
3.875 470 67.958 26.062 71.141 -0.74697 0.61395 
3.9 470 61.825 26.369 70.814 -0.75167 0.60547 
3.925 482 67.985 26.605 70.979 -0.75711 0.59889 
3.95 482 63.536 26.947 70.725 -0.76264 0.58928 
3.975 492 68.558 27.184 70.922 -0.76814 0.58257 
4 492 63.977 27.498 70.968 -0.77433 0.57364 
4.025 502 69.757 27.893 70.748 -0.7807 0.56229 
4.05 502 65.407 28.22 70.996 -0.78788 0.55282 
4.075 502 61.966 28.581 70.966 -0.79427 0.54226 
4.1 514 69.543 28.823 71.635 -0.80174 0.53514 
4.125 514 65.642 29.288 71.586 -0.80964 0.52137 
4.15 514 62.373 29.644 72.08 -0.81804 0.51071 
4.175 514 60.242 30.072 72.383 -0.82661 0.49782 
4.2 514 58.68 30.512 72.695 -0.83523 0.48443 
4.225 525 67.337 31.001 73.46 -0.84643 0.46943 
4.25 525 65.601 31.519 74.009 -0.85682 0.45339 
4.275 525 64.201 31.96 74.764 -0.86662 0.43961 
4.3 507 70.541 32.64 74.504 -0.87535 0.41817 
4.325 507 75.768 33.091 75.046 -0.88384 0.40385 
4.35 498 70.958 33.4 75.734 -0.89079 0.39394 
4.375 498 75.013 33.517 76.947 -0.89694 0.3902 
4.4 498 78.928 33.519 78.643 -0.90274 0.39011 
4.425 486 68.983 33.612 79.139 -0.90551 0.38713 
4.45 486 71.39 33.598 79.961 -0.90772 0.38759 
4.475 486 73.657 33.64 79.898 -0.9081 0.38624 
4.5 486 75.948 33.597 80.046 -0.90795 0.38761 
4.525 486 77.778 33.434 81.009 -0.90831 0.39284 
4.55 486 79.073 33.337 80.798 -0.90645 0.39597 
4.575 477 69.056 33.337 80.215 -0.90491 0.39596 
4.6 477 68.649 33.109 80.983 -0.90378 0.40326 
4.625 477 68.309 33.083 79.824 -0.90033 0.40408 
4.65 477 66.988 32.94 80.463 -0.90008 0.40864 
4.675 477 65.439 32.821 81.122 -0.90007 0.41244 
4.7 477 64.756 32.686 80.937 -0.89769 0.41672 
4.725 477 62.696 32.728 79.977 -0.89576 0.41538 
4.75 477 60.973 32.632 79.99 -0.89443 0.41842 
4.775 489 70.672 32.452 80.836 -0.89404 0.42413 
4.8 489 68.366 32.602 79.113 -0.89147 0.41939 
4.825 489 65.199 32.37 80.105 -0.89093 0.42671 
4.85 489 63.264 32.445 78.69 -0.88791 0.42436 
4.875 489 60.332 32.372 79.097 -0.88809 0.42665 
4.9 502 70.987 32.291 79.026 -0.88668 0.42923 
4.925 502 67.539 32.294 78.377 -0.88473 0.42911 
4.95 502 64.697 32.146 78.938 -0.88428 0.43377 
4.975 502 61.929 32.129 78.225 -0.88181 0.43431 
5 513 69.505 32.086 78.45 -0.88188 0.43566 
5.025 513 65.961 32.05 77.592 -0.87855 0.4368 
5.05 513 62.23 31.924 77.68 -0.87696 0.44074 
5.075 523 68.24 31.974 76.806 -0.87468 0.43919 
5.1 523 64.316 31.943 76.515 -0.87317 0.44015 
5.125 523 60.448 31.797 76.611 -0.87132 0.44474 
5.15 537 69.221 31.762 76.433 -0.87015 0.44582 
5.175 537 63.877 31.838 75.574 -0.86803 0.44346 
5.2 537 60.346 31.831 74.642 -0.86419 0.44366 
5.225 550 66.99 31.673 75.37 -0.86476 0.4486 
5.25 550 61.527 31.589 75.038 -0.86215 0.45123 
5.275 564 69.158 31.643 74.26 -0.85977 0.44952 
5.3 564 64.785 31.6 74.221 -0.85894 0.45089 
5.325 564 60.669 31.581 73.901 -0.85729 0.45148 
5.35 579 68.465 31.552 73.158 -0.85357 0.45239 
5.375 579 64.3 31.445 73.1 -0.85169 0.45571 
5.4 579 59.595 31.353 72.587 -0.84794 0.45856 
5.425 596 69.031 31.391 72.259 -0.84697 0.45739 
5.45 596 64.655 31.339 72.076 -0.84532 0.45899 
5.475 608 69.484 31.103 72.471 -0.84355 0.46629 
5.5 608 64.391 31.129 71.56 -0.83961 0.46548 
5.525 620 69.176 31.058 71.343 -0.83745 0.46767 
5.55 620 63.477 31.086 70.726 -0.83478 0.46683 
5.575 635 69.481 31.076 70.336 -0.83262 0.46714 
5.6 635 64.344 30.818 70.453 -0.82923 0.47506 
5.625 635 58.511 30.717 70.286 -0.82679 0.47817 
5.65 657 68.779 30.755 69.396 -0.82268 0.47701 
5.675 657 62.525 30.768 69.139 -0.82148 0.47661 
5.7 670 65.319 30.623 69.294 -0.82006 0.48106 
5.725 684 69.396 30.79 68.044 -0.81569 0.47594 
5.75 684 62.716 30.621 67.812 -0.81174 0.48112 
5.775 701 67.256 30.528 67.65 -0.80935 0.48397 
5.8 701 60.822 30.371 68.3 -0.8106 0.48874 
5.825 722 68.516 30.324 67.279 -0.80399 0.49016 
5.85 722 60.68 30.22 66.726 -0.79907 0.49332 
5.875 744 67.553 29.943 67.281 -0.79791 0.50172 
5.9 744 59.9 30.112 66.373 -0.79522 0.4966 
5.925 766 66.254 29.984 66.082 -0.7914 0.50049 
5.95 780 67.18 30.069 64.844 -0.78498 0.4979 
5.975 780 59.221 30.255 64.83 -0.78779 0.49227 
6 780 52.484 29.774 64.903 -0.78066 0.50682 
6.025 780 46.559 29.535 64.635 -0.77511 0.51399 
6.05 780 41.609 29.902 63.583 -0.77406 0.50297 
6.075 780 37.296 30.092 62.969 -0.77285 0.49721 
6.1 780 33.363 29.842 63.538 -0.77281 0.50477 
6.125 780 29.467 29.871 62.23 -0.76429 0.50389 
6.15 780 26.92 29.843 62.283 -0.76422 0.50473 
6.175 780 23.945 29.648 62.472 -0.76248 0.51059 
6.2 780 21.803 30.093 61.75 -0.76431 0.49718 
6.225 780 19.675 29.449 61.799 -0.75461 0.51655 
6.25 780 17.958 29.945 61.628 -0.76115 0.50167 
6.275 780 16.138 30.097 60.456 -0.75489 0.49706 
6.3 780 14.569 30.045 59.509 -0.74694 0.49863 
6.325 780 13.121 29.871 60.333 -0.75054 0.50389 
6.35 780 11.739 29.498 59.635 -0.73956 0.51509 
6.375 780 10.391 29.854 58.751 -0.73819 0.50442 
6.4 780 9.306 30.071 58.046 -0.73584 0.49787 
6.425 780 8.386 30.523 58.989 -0.74994 0.48412 
6.45 780 7.417 29.838 58.701 -0.73756 0.50489 
6.475 780 6.458 29.556 58.437 -0.73121 0.51337 
6.5 780 5.64 30.712 58.524 -0.74897 0.47833 

# MINIMA:
0.600 346.0 0.000 23.983 0.000 -0.90831 0.00000

# MAXIMA:
6.500 2044.7 83.293 45.000 81.122 0.00000 0.66957

# PEAKS:

# END SPECTRUM


# SPECTRUM:
5

# START TIME:
17:00:58

# END TIME:
17:11:24

# THETA ANGLE:
0.00 ø

# INCIDENCE ANGLE:
75.00 ø

# ACCUMULATION NUMBER:
1

# ELLIPSOMETRIC CONFIGURATION:
+45.00 øModulator
-45.00 øAnalyser

# INTEGRATION TIME:
500 ms

# FIRST POINT:
0.6000 eV

# LAST POINT:
6.5000 eV

# INCREMENT:
0.0250 eV

# NUMBER OF POINTS:
237

# DATA:
eV Hv S0 Psi Delta Is Ic
0.6 1301.8 62.912 35.628 37.461 -0.57597 0.32134 
0.625 1200.2 79.017 35.018 38.722 -0.58795 0.34142 
0.65 1098.6 78.247 34.736 40.164 -0.60403 0.35066 
0.675 1098.6 78.847 34.115 41.814 -0.61917 0.37087 
0.7 901.7 64.937 34.235 42.347 -0.62662 0.36698 
0.725 901.7 77.124 34.038 43.584 -0.63956 0.37336 
0.75 806.5 65.248 33.951 44.375 -0.64798 0.37619 
0.775 717.6 61.835 34.195 44.586 -0.65264 0.36829 
0.8 520.7 74.775 33.66 46.37 -0.66784 0.38558 
0.825 717.6 75.181 33.403 47.679 -0.67962 0.39386 
0.85 717.6 71.157 33.095 48.948 -0.68994 0.40369 
0.875 520.7 74.978 33.057 49.56 -0.69589 0.40493 
0.9 622.3 80.618 33.229 50.015 -0.70243 0.39943 
0.925 723.9 80.634 33.09 50.992 -0.71087 0.40386 
0.95 723.9 70.024 32.842 52.348 -0.7215 0.41176 
0.975 527.1 72.834 32.495 53.769 -0.73101 0.42276 
1 723.9 68.306 32.273 55.024 -0.73985 0.4298 
1.025 723.9 70.321 32.279 55.768 -0.74659 0.42959 
1.05 450.9 64.3 32.248 56.303 -0.75091 0.43056 
1.075 749.3 71.379 32.371 56.612 -0.75514 0.42669 
1.1 749.3 79.052 32.076 58.142 -0.76438 0.43599 
1.125 749.3 77.46 32.07 58.773 -0.76949 0.43618 
1.15 647.7 68.307 31.945 59.702 -0.77531 0.44008 
1.175 647.7 72.834 31.798 60.672 -0.78088 0.44468 
1.2 749.3 77.139 31.571 62.051 -0.78808 0.45177 
1.225 489 61.768 31.375 63.208 -0.79358 0.45788 
1.25 387.4 81.274 31.368 63.683 -0.79678 0.45808 
1.275 584.2 68.472 31.397 64.14 -0.80031 0.45719 
1.3 584.2 75.237 31.148 65.413 -0.80509 0.4649 
1.325 774.7 83.188 31.023 66.34 -0.80907 0.46877 
1.35 419.1 60.801 30.995 66.829 -0.81165 0.46961 
1.375 819.2 79.758 30.83 67.892 -0.81543 0.47471 
1.4 520.7 60.818 30.712 69.086 -0.82032 0.47834 
1.425 1219.2 62.342 30.56 69.854 -0.82206 0.48297 
1.45 2019.3 62.5 30.525 70.561 -0.82516 0.48404 
1.475 780 0 45 0 -0.826153 0.486525 
1.5 446 63.303 30.401 71.239 -0.82656 0.48783 
1.525 537 69.227 30.482 71.248 -0.8279 0.48536 
1.55 491 72.486 30.132 73.141 -0.831 0.496 
1.575 527 67.22 30.064 73.678 -0.83219 0.49807 
1.6 527 76.507 30.024 74.061 -0.83314 0.49927 
1.625 483 72.575 29.945 74.54 -0.83377 0.50165 
1.65 483 65.724 29.795 75.922 -0.83653 0.50617 
1.675 483 78.421 29.711 76.664 -0.83772 0.50872 
1.7 467 69.601 29.628 77.368 -0.83866 0.5112 
1.725 458 70.456 29.519 78.243 -0.83952 0.51448 
1.75 450 69.911 29.375 79.483 -0.84055 0.51878 
1.775 442 70.385 29.326 79.74 -0.84036 0.52025 
1.8 427 69.501 29.298 79.96 -0.84044 0.52108 
1.825 427 74.152 29.142 81.618 -0.84157 0.52572 
1.85 418 70.464 29.119 81.413 -0.84071 0.5264 
1.875 418 75.823 28.992 83.115 -0.84179 0.53015 
1.9 407 70.431 28.925 83.607 -0.84139 0.53214 
1.925 407 76.077 28.854 84.538 -0.8415 0.53423 
1.95 397 69.482 28.79 84.787 -0.84065 0.53612 
1.975 397 75.335 28.734 85.257 -0.84021 0.53776 
2 390 70.68 28.603 90 -0.84088 0.54161 
2.025 390 72.205 28.611 88.837 -0.84059 0.5414 
2.05 390 70.368 28.539 90 -0.83984 0.5435 
2.075 381 71.021 28.479 90 -0.83963 0.54525 
2.1 381 74.258 28.43 90 -0.83855 0.54667 
2.125 381 76.656 28.382 90 -0.83859 0.54807 
2.15 381 78.577 28.325 90 -0.83762 0.54975 
2.175 373 69.026 28.274 90 -0.83627 0.55124 
2.2 373 70.377 28.197 90 -0.83594 0.55348 
2.225 373 71.601 28.197 90 -0.83525 0.55348 
2.25 373 73.247 28.149 90 -0.83441 0.55488 
2.275 373 74.473 28.094 90 -0.83338 0.55647 
2.3 373 74.65 28.017 90 -0.83232 0.55871 
2.325 373 75.094 27.903 90 -0.82964 0.56199 
2.35 373 75.849 27.796 90 -0.82736 0.56508 
2.375 373 76.328 27.671 90 -0.82326 0.56869 
2.4 373 76.86 27.515 90 -0.81949 0.57315 
2.425 366 69.592 27.338 85.761 -0.81367 0.57819 
2.45 359 68.789 27.111 85.262 -0.80852 0.58464 
2.475 359 67.171 26.866 84.448 -0.80247 0.59157 
2.5 349 70.525 26.606 80.981 -0.79096 0.59885 
2.525 349 70.075 26.27 81.986 -0.78602 0.60822 
2.55 349 69.368 26.148 80.753 -0.7809 0.61159 
2.575 349 72.799 26.003 80.291 -0.77679 0.61557 
2.6 349 67.373 25.876 80.84 -0.77532 0.61907 
2.625 342 69.169 25.801 80.874 -0.7738 0.62112 
2.65 342 71.265 25.739 80.757 -0.77221 0.62282 
2.675 342 61.838 25.874 79.189 -0.77135 0.61913 
2.7 352 68.985 25.815 79.209 -0.77015 0.62074 
2.725 352 64.354 25.784 79.719 -0.77077 0.62158 
2.75 352 66.232 25.686 80.614 -0.77076 0.62426 
2.775 360 67.804 25.747 79.797 -0.77016 0.6226 
2.8 360 66.33 25.771 79.448 -0.76983 0.62193 
2.825 360 64.734 25.785 79.364 -0.7699 0.62157 
2.85 360 61.09 25.766 79.758 -0.77049 0.62207 
2.875 360 58.883 25.796 79.13 -0.76954 0.62127 
2.9 368 66.927 25.751 79.329 -0.7691 0.62248 
2.925 368 65.42 25.781 78.82 -0.76843 0.62165 
2.95 368 64.464 25.751 79.056 -0.76839 0.62249 
2.975 368 60.524 25.793 78.275 -0.76719 0.62134 
3 368 58.196 25.781 78.223 -0.76678 0.62168 
3.025 379 68.559 25.697 78.504 -0.76578 0.62396 
3.05 379 64.982 25.708 78.023 -0.76468 0.62366 
3.075 379 62.192 25.727 77.607 -0.76389 0.62314 
3.1 372 68.492 25.633 77.794 -0.76244 0.62569 
3.125 372 66.189 25.594 77.594 -0.76102 0.62676 
3.15 372 61.95 25.556 77.467 -0.75983 0.6278 
3.175 380 67.452 25.533 76.723 -0.75708 0.62843 
3.2 380 63.584 25.481 76.513 -0.75531 0.62983 
3.225 380 60.267 25.45 75.814 -0.75238 0.63067 
3.25 389 67.978 25.283 76.127 -0.74982 0.6352 
3.275 389 63.179 25.121 76.33 -0.74697 0.63956 
3.3 398 68.57 25.037 75.583 -0.74271 0.64181 
3.325 398 61.358 24.928 75.063 -0.73859 0.64472 
3.35 408 68.271 24.633 76.192 -0.73585 0.65254 
3.375 408 67.433 24.522 76.049 -0.73292 0.65549 
3.4 408 66.512 24.406 76.075 -0.73045 0.65852 
3.425 408 64.144 24.347 76.108 -0.72922 0.66009 
3.45 408 61.591 24.289 76.353 -0.72869 0.6616 
3.475 417 68.188 24.247 76.534 -0.7283 0.66269 
3.5 417 64.741 24.28 76.242 -0.72813 0.66184 
3.525 417 60.871 24.214 77.107 -0.72925 0.66357 
3.55 427 68.576 24.195 77.171 -0.72901 0.66407 
3.575 427 64.93 24.184 77.396 -0.72942 0.66434 
3.6 427 62.398 24.242 77.072 -0.72979 0.66283 
3.625 427 59.664 24.225 77.588 -0.73088 0.66328 
3.65 436 66.502 24.211 78.299 -0.73252 0.66363 
3.675 436 63.828 24.279 78.317 -0.7341 0.66186 
3.7 436 61.722 24.376 78.357 -0.73639 0.65933 
3.725 436 59.605 24.376 79.355 -0.73892 0.65932 
3.75 446 67.326 24.46 80.17 -0.74273 0.65711 
3.775 446 64.154 24.626 79.726 -0.74545 0.65272 
3.8 446 60.48 24.772 79.861 -0.74903 0.64886 
3.825 458 69.273 24.907 80.126 -0.75264 0.64526 
3.85 458 63.646 25.062 80.273 -0.7564 0.64113 
3.875 470 69.857 25.234 80.474 -0.76062 0.63652 
3.9 470 63.498 25.51 80.376 -0.76643 0.62905 
3.925 480 68.216 25.664 81.177 -0.77151 0.62485 
3.95 480 62.879 25.945 80.911 -0.77695 0.61717 
3.975 491 69.093 26.187 81.301 -0.7829 0.6105 
4 491 64.313 26.514 80.733 -0.78851 0.60142 
4.025 491 60.385 26.799 80.553 -0.79396 0.59344 
4.05 503 68.152 27.065 80.947 -0.80025 0.58596 
4.075 503 63.993 27.368 81.246 -0.80699 0.57734 
4.1 513 69.685 27.695 81.217 -0.81339 0.56798 
4.125 513 65.486 28.1 81.417 -0.82168 0.5563 
4.15 513 62.153 28.451 81.365 -0.82825 0.54606 
4.175 513 60.129 28.848 81.534 -0.83602 0.53441 
4.2 513 58.686 29.321 81.25 -0.844 0.52038 
4.225 525 67.925 29.838 81.464 -0.85362 0.50489 
4.25 525 66.631 30.399 80.707 -0.86145 0.48789 
4.275 525 64.555 30.947 80.706 -0.8705 0.47109 
4.3 503 68.627 31.837 77.253 -0.87419 0.44349 
4.325 503 73.464 32.412 76.662 -0.88059 0.4254 
4.35 494 68.217 32.636 77.323 -0.88616 0.41831 
4.375 494 71.835 32.891 77.182 -0.88927 0.4102 
4.4 494 74.805 33.41 74.794 -0.88709 0.39361 
4.425 494 78.651 33.61 74.214 -0.88723 0.38718 
4.45 484 69.145 33.889 72.601 -0.88337 0.37819 
4.475 484 71.27 33.96 72.069 -0.88165 0.37591 
4.5 484 73.693 33.923 71.55 -0.87857 0.37711 
4.525 484 74.429 34.012 70.447 -0.87386 0.37423 
4.55 484 75.423 33.949 69.974 -0.8705 0.37625 
4.575 484 76.001 33.88 69.342 -0.8661 0.37848 
4.6 484 76.27 33.851 68.542 -0.86109 0.37943 
4.625 484 76.286 33.784 67.67 -0.85502 0.38157 
4.65 484 74 33.747 67.19 -0.85158 0.38279 
4.675 484 73.418 33.706 66.746 -0.84828 0.38411 
4.7 484 71.839 33.365 68.304 -0.85357 0.383828 
4.725 484 69.535 33.704 65.323 -0.83896 0.38415 
4.75 484 67.633 33.607 65.112 -0.83634 0.38728 
4.775 484 66.097 33.568 64.709 -0.83311 0.38856 
4.8 484 63.045 33.432 64.568 -0.83046 0.39291 
4.825 484 61.367 33.614 63.516 -0.8253 0.38706 
4.85 497 71.785 33.483 63.357 -0.82256 0.39127 
4.875 497 68.104 33.438 63.161 -0.82059 0.39271 
4.9 497 66.362 33.508 62.585 -0.81722 0.39049 
4.925 497 63.031 33.412 62.234 -0.81346 0.39355 
4.95 497 60.765 33.532 61.634 -0.81037 0.38969 
4.975 509 69.177 33.374 61.43 -0.8069 0.39478 
5 509 66.759 33.384 61.156 -0.80491 0.39446 
5.025 509 62.685 33.416 60.72 -0.80189 0.39344 
5.05 509 60.028 33.418 60.298 -0.79859 0.39335 
5.075 522 69.319 33.433 59.771 -0.79454 0.39289 
5.1 522 64.95 33.326 59.811 -0.79359 0.39631 
5.125 522 61.3 33.339 59.191 -0.7887 0.39591 
5.15 535 68.753 33.39 58.865 -0.78662 0.39426 
5.175 535 64.633 33.403 58.373 -0.78266 0.39385 
5.2 546 69.935 33.266 58.319 -0.78059 0.39825 
5.225 546 65.24 33.276 58.017 -0.77817 0.39792 
5.25 546 60.967 33.398 57.498 -0.77515 0.39401 
5.275 561 69.852 33.245 57.418 -0.77267 0.39892 
5.3 561 65.26 33.28 56.863 -0.76826 0.3978 
5.325 561 61.352 33.286 56.561 -0.76568 0.39759 
5.35 573 66.954 33.227 56.306 -0.76274 0.39949 
5.375 573 62.491 33.34 55.715 -0.75875 0.39587 
5.4 585 68.592 33.202 55.361 -0.75396 0.40029 
5.425 585 63.879 33.135 55.339 -0.75299 0.40241 
5.45 585 59.708 33.308 54.619 -0.74835 0.3969 
5.475 600 66.752 33.28 54.485 -0.7468 0.39778 
5.5 600 62.297 33.133 54.123 -0.74175 0.40249 
5.525 614 68.35 33.264 53.933 -0.74144 0.3983 
5.55 614 63.531 33.156 53.599 -0.73708 0.40174 
5.575 627 68.21 33.13 53.171 -0.7327 0.40258 
5.6 627 62.81 33.079 52.809 -0.72864 0.40423 
5.625 640 66.926 32.966 52.748 -0.72678 0.40782 
5.65 640 61.55 32.789 52.56 -0.72294 0.41346 
5.675 653 65.296 32.938 52.068 -0.71985 0.40873 
5.7 653 59.585 32.9 51.775 -0.71654 0.40994 
5.725 673 67.757 32.732 51.608 -0.71301 0.41525 
5.75 673 61.927 33.043 51.176 -0.7122 0.40536 
5.775 691 67.782 32.66 51.062 -0.70677 0.41756 
5.8 705 70.682 32.81 50.666 -0.70448 0.4128 
5.825 705 64.415 32.828 50.375 -0.70175 0.41223 
5.85 721 67.572 32.755 50.164 -0.6988 0.41453 
5.875 721 60.186 32.563 49.945 -0.69442 0.42064 
5.9 742 65.686 32.598 49.423 -0.68946 0.41953 
5.925 756 66.85 32.667 49.176 -0.68768 0.41733 
5.95 770 67.713 32.583 48.817 -0.68301 0.42 
5.975 780 65.205 32.921 48.146 -0.67961 0.40924 
6 780 58.894 32.503 48.538 -0.67923 0.42251 
6.025 780 51.736 32.582 48.118 -0.67566 0.42002 
6.05 780 46.826 32.588 47.647 -0.67073 0.41982 
6.075 780 41.778 32.524 47.78 -0.67145 0.42185 
6.1 780 37.688 32.417 47.502 -0.66732 0.42523 
6.125 780 33.09 32.245 47.356 -0.66387 0.43066 
6.15 780 30.13 32.403 46.741 -0.65899 0.42568 
6.175 780 27.218 32.653 47.002 -0.6645 0.41777 
6.2 780 24.825 32.645 46.941 -0.66375 0.41802 
6.225 780 22.245 32.416 46.179 -0.65301 0.42526 
6.25 780 20.411 32.183 46.357 -0.65243 0.43261 
6.275 780 18.199 31.796 45.71 -0.64111 0.432095 
6.3 780 16.535 32.305 46.005 -0.64991 0.42879 
6.325 780 14.69 32.337 46.597 -0.65671 0.42777 
6.35 780 13.431 32.191 45.396 -0.64199 0.43238 
6.375 780 11.775 32.115 46.385 -0.652 0.43475 
6.4 780 10.515 32.577 45.499 -0.64723 0.42018 
6.425 780 9.262 32.703 45.287 -0.64617 0.41617 
6.45 780 8.174 33.17 44.665 -0.64387 0.40132 
6.475 780 7.295 32.976 46.457 -0.66194 0.4075 
6.5 780 6.37 33.119 45.108 -0.64838 0.40293 

# MINIMA:
0.600 342.0 0.000 24.184 0.000 -0.88927 0.00000

# MAXIMA:
6.500 2019.3 83.188 45.000 90.000 0.00000 0.66434

# PEAKS:

# END SPECTRUM

